aX,aY,aZ,gX,gY,gZ,yaw,pitch,roll
15,-384,8409,1,-3,-1,-3.84,0.23,0.34
-11,-397,8397,0,-4,-2,-3.83,0.27,0.35
-24,-432,8363,-1,-5,-3,-3.82,0.32,0.39
-21,-473,8302,-2,-4,-4,-3.83,0.37,0.42
-14,-525,8244,-2,-4,-4,-3.86,0.42,0.47
-10,-579,8193,-2,-4,-4,-3.89,0.47,0.51
4,-625,8148,-2,-6,-3,-3.93,0.54,0.56
29,-667,8106,-1,-7,-3,-3.96,0.62,0.59
58,-709,8073,-1,-7,-3,-3.98,0.72,0.63
88,-738,8041,0,-7,-3,-4.00,0.81,0.66
120,-749,8011,0,-6,-2,-4.00,0.90,0.68
143,-739,7991,2,-6,-2,-3.98,0.98,0.70
158,-706,7977,3,-5,-1,-3.94,1.06,0.71
158,-668,7981,5,-6,-1,-3.88,1.13,0.72
138,-628,7997,7,-7,0,-3.78,1.21,0.72
121,-582,8036,9,-7,0,-3.65,1.29,0.70
110,-531,8111,10,-8,0,-3.50,1.38,0.70
94,-490,8208,10,-8,0,-3.35,1.48,0.69
83,-450,8290,9,-9,-1,-3.20,1.59,0.68
85,-411,8372,8,-10,-1,-3.07,1.71,0.68
96,-377,8429,6,-11,-2,-2.96,1.85,0.70
100,-356,8423,4,-12,-2,-2.89,1.99,0.71
91,-342,8367,2,-13,-3,-2.84,2.15,0.74
87,-355,8276,1,-15,-4,-2.81,2.33,0.78
92,-376,8181,2,-16,-5,-2.78,2.54,0.84
111,-414,8091,3,-17,-7,-2.74,2.76,0.92
161,-457,8031,5,-17,-8,-2.68,2.99,1.01
263,-501,8033,6,-13,-9,-2.60,3.18,1.13
471,-560,8145,9,0,-11,-2.48,3.25,1.25
793,-594,8346,11,25,-12,-2.34,3.05,1.41
1075,-612,8551,10,64,-13,-2.19,2.37,1.58
1190,-622,8703,7,104,-15,-2.08,1.12,1.78
1132,-593,8741,1,135,-18,-2.06,-0.61,2.01
952,-551,8594,-6,160,-24,-2.14,-2.71,2.32
725,-550,8339,-12,178,-30,-2.31,-5.09,2.70
480,-634,8083,-13,194,-37,-2.59,-7.70,3.19
261,-693,7913,-9,209,-41,-2.87,-10.50,3.76
102,-619,7928,-4,229,-41,-3.12,-13.53,4.35
-61,-177,8193,-2,258,-37,-3.27,-16.92,4.96
-206,-9,8535,-14,303,-47,-3.62,-20.83,5.65
-477,121,8720,-43,341,-60,-4.50,-25.25,6.44
-1019,183,8664,-82,361,-64,-6.15,-30.04,7.12
-1623,231,8139,-117,363,-56,-8.49,-34.89,7.37
-2192,-276,7146,-136,392,-43,-11.47,-40.04,7.10
-2601,-1350,6050,-131,434,-22,-15.18,-45.71,6.35
-2902,-1280,4893,-110,443,10,-19.04,-51.68,5.14
-3052,-648,3752,-90,396,51,-22.37,-57.33,3.18
-3296,-320,2769,-71,354,91,-25.03,-62.54,0.32
-4000,-213,1904,-55,353,118,-27.48,-67.80,-3.61
-5207,-268,1178,-51,324,131,-30.15,-72.94,-9.41
-6628,-251,543,-51,263,130,-32.84,-77.41,-18.25
-7941,-228,64,-47,202,120,-35.16,-81.08,-30.83
-9013,-204,-329,-39,155,100,-37.46,-83.96,-46.12
-9943,-254,-630,-28,128,71,-43.08,-86.25,-62.88
-10641,-379,-884,-16,100,35,-60.22,-87.74,-77.79
-11026,-422,-1067,-5,77,1,-94.04,-91.85,-89.41
-11174,-402,-1124,4,48,-24,-115.24,-92.32,-97.02
-11116,-320,-1076,8,24,-36,-119.78,-92.95,-101.00
-10965,-299,-959,9,-1,-40,-116.97,-93.45,-101.75
-10800,-317,-802,10,-24,-40,-109.95,-93.85,-99.20
-10613,-345,-635,10,-45,-40,-100.30,-94.23,-93.47
-10395,-419,-534,12,-62,-42,-89.36,-85.28,-84.76
-10188,-531,-503,15,-86,-42,-77.68,-84.58,-72.84
-9939,-687,-481,23,-108,-41,-66.26,-83.60,-58.35
-9707,-816,-440,30,-132,-42,-56.16,-82.25,-43.46
-9553,-890,-344,32,-170,-42,-46.87,-80.43,-30.06
-9443,-857,-145,31,-225,-42,-38.43,-77.93,-19.77
-9238,-847,133,32,-272,-43,-31.37,-74.65,-12.57
-8913,-916,514,36,-293,-50,-26.49,-70.84,-7.73
-8453,-944,1019,41,-302,-61,-23.30,-66.72,-4.18
-7898,-940,1607,42,-306,-68,-21.09,-62.45,-1.44
-7297,-975,2221,40,-309,-71,-19.49,-58.05,0.68
-6635,-1015,2751,36,-312,-67,-18.19,-53.58,2.30
-5994,-1093,3219,32,-315,-59,-17.06,-49.10,3.49
-5423,-1171,3670,30,-321,-46,-15.97,-44.57,4.32
-4873,-1201,4089,31,-320,-31,-14.87,-40.07,4.89
-4371,-1192,4502,33,-309,-18,-13.78,-35.71,5.24
-3891,-1213,5003,38,-290,-9,-12.72,-31.61,5.49
-3351,-1175,5613,43,-265,-6,-11.70,-27.80,5.73
-2809,-1117,6268,44,-237,-6,-10.76,-24.34,5.95
-2340,-1111,6883,38,-220,-7,-9.96,-21.12,6.16
-1973,-1156,7361,29,-210,-5,-9.34,-18.08,6.30
-1694,-1192,7653,19,-211,0,-8.89,-15.09,6.31
-1464,-1220,7720,11,-216,4,-8.58,-12.06,6.24
-1250,-1236,7628,7,-219,7,-8.37,-9.03,6.10
-1018,-1226,7481,8,-216,7,-8.20,-6.02,5.98
-763,-1174,7349,14,-201,4,-8.00,-3.16,5.90
-464,-1118,7297,20,-178,-2,-7.71,-0.60,5.90
-123,-1082,7399,28,-149,-8,-7.34,1.61,5.99
241,-1059,7649,34,-114,-12,-6.88,3.37,6.13
595,-1041,7974,34,-86,-14,-6.39,4.72,6.29
836,-1016,8286,26,-73,-10,-5.98,5.81,6.43
969,-1034,8504,14,-80,-2,-5.74,6.91,6.47
1087,-1024,8573,3,-93,9,-5.70,8.15,6.38
1218,-945,8515,-4,-98,17,-5.79,9.49,6.19
1591,-817,8424,-4,-90,19,-5.91,10.78,5.96
1693,-726,8398,0,-70,19,-5.96,11.83,5.73
1738,-842,8371,5,-55,25,-5.98,12.61,5.39
1756,-963,8387,9,-30,26,-5.99,13.07,5.01
-45,-186,8253,-3,-2,-2,-1.66,0.27,3.36
-44,-190,8240,-3,-3,-2,-1.69,0.29,3.38
-37,-195,8212,-3,-3,-2,-1.73,0.31,3.40
-32,-198,8179,-3,-3,-2,-1.76,0.34,3.43
-10,-199,8153,-2,-3,-2,-1.78,0.38,3.45
2,-204,8149,-2,-3,-3,-1.80,0.42,3.48
25,-197,8167,-1,-3,-3,-1.81,0.45,3.51
50,-198,8171,-2,-2,-3,-1.82,0.48,3.55
76,-196,8149,-3,-2,-3,-1.85,0.51,3.58
105,-199,8117,-3,-2,-3,-1.88,0.53,3.60
115,-216,8076,-3,-3,-2,-1.91,0.57,3.62
134,-232,8040,-2,-4,-2,-1.93,0.62,3.65
153,-241,8024,-1,-4,-1,-1.93,0.68,3.65
170,-258,8013,0,-3,-1,-1.94,0.73,3.66
170,-265,8019,0,-2,-1,-1.93,0.76,3.66
157,-263,8041,0,-2,0,-1.91,0.78,3.66
135,-263,8067,0,-2,0,-1.91,0.81,3.66
108,-261,8085,1,-3,0,-1.89,0.84,3.65
83,-257,8089,0,-4,-1,-1.88,0.89,3.65
77,-253,8088,0,-5,-1,-1.86,0.94,3.66
87,-263,8091,1,-5,-2,-1.84,1.00,3.67
107,-275,8104,1,-3,-2,-1.83,1.05,3.69
145,-283,8129,2,0,-3,-1.80,1.06,3.72
188,-293,8162,2,4,-3,-1.77,1.02,3.76
217,-303,8206,2,10,-3,-1.74,0.90,3.79
238,-296,8244,1,20,-3,-1.72,0.66,3.83
230,-269,8274,0,34,-5,-1.71,0.24,3.88
216,-262,8335,0,53,-8,-1.69,-0.43,3.97
203,-256,8411,0,78,-14,-1.69,-1.42,4.14
148,-277,8486,-2,109,-20,-1.71,-2.81,4.39
85,-339,8509,-4,142,-27,-1.79,-4.65,4.73
24,-408,8449,-7,172,-35,-1.94,-6.91,5.20
-2,-511,8312,-7,201,-42,-2.15,-9.54,5.78
-11,-591,8122,-6,227,-47,-2.41,-12.53,6.47
-93,-612,7936,-5,245,-45,-2.70,-15.79,7.19
-305,-565,7803,-6,251,-38,-3.01,-19.18,7.86
-681,-520,7736,-11,247,-25,-3.35,-22.56,8.40
-1142,-438,7666,-16,247,-12,-3.72,-25.92,8.75
-1665,-470,7551,-22,259,-4,-4.16,-29.45,8.96
-2234,-372,7293,-29,275,0,-4.70,-33.19,9.10
-2868,-347,6911,-36,286,0,-5.41,-37.16,9.22
-3448,-396,6450,-41,298,-3,-6.29,-41.32,9.34
-3926,-296,5807,-41,299,-4,-7.37,-45.49,9.50
-4485,-415,5287,-36,281,-5,-8.56,-49.52,9.75
-4902,-420,4852,-25,270,-3,-9.74,-53.34,10.15
-5329,-355,4562,-17,251,1,-10.89,-56.91,10.73
-5745,-249,4313,-16,230,7,-11.97,-60.17,11.38
-6194,-218,4141,-22,217,10,-13.16,-63.24,11.92
-6716,-269,3930,-32,196,10,-14.63,-66.04,12.21
-7192,-367,3685,-42,164,11,-16.31,-68.42,11.98
-7495,-422,3418,-49,137,12,-18.10,-70.41,11.12
-7680,-405,3117,-53,123,12,-19.96,-72.16,9.72
-7810,-433,2763,-54,116,11,-22.07,-73.78,7.87
-7934,-540,2307,-53,118,8,-24.74,-75.38,5.57
-8130,-695,1781,-52,112,8,-28.07,-76.92,2.64
-8347,-781,1257,-48,101,10,-31.74,-78.33,-1.02
-8593,-882,809,-40,87,11,-35.60,-79.56,-5.27
-8843,-979,516,-29,71,8,-39.55,-80.55,-9.61
-9011,-1053,340,-19,58,4,-43.39,-81.29,-13.50
-9137,-1112,242,-12,48,0,-47.32,-81.84,-16.95
-9230,-1132,212,-6,37,-1,-50.79,-82.23,-19.90
-9331,-1131,255,0,27,-1,-53.51,-82.50,-21.90
-9477,-1113,339,4,10,-1,-54.89,-82.62,-22.28
-9732,-1114,384,6,-19,-1,-53.93,-82.53,-20.68
-10042,-1138,375,9,-53,-1,-50.37,-82.16,-17.24
-10320,-1151,315,15,-88,-6,-44.99,-81.41,-12.79
-10516,-1147,276,22,-129,-12,-38.82,-80.13,-8.14
-10568,-1055,386,30,-180,-18,-32.49,-78.17,-3.96
-10459,-891,712,35,-242,-19,-26.31,-75.35,-0.75
-10119,-787,1224,36,-297,-16,-21.01,-71.64,1.30
-9556,-735,1838,33,-330,-15,-17.03,-67.30,2.48
-8834,-699,2474,27,-335,-17,-14.30,-62.70,3.11
-8147,-646,3074,20,-330,-18,-12.46,-58.09,3.45
-7579,-625,3631,14,-330,-17,-11.14,-53.50,3.59
-7106,-623,4112,9,-345,-12,-10.09,-48.75,3.59
-6614,-654,4491,3,-371,-7,-9.22,-43.71,3.45
-6000,-697,4798,0,-396,-3,-8.51,-38.30,3.23
-5225,-744,5114,3,-408,1,-7.89,-32.66,3.03
-4361,-803,5513,12,-398,3,-7.31,-27.04,2.91
-3474,-857,5982,20,-372,5,-6.73,-21.69,2.84
-2648,-921,6431,21,-336,9,-6.21,-16.80,2.77
-1971,-966,6822,17,-299,12,-5.80,-12.43,2.62
-1449,-1003,7124,13,-266,13,-5.52,-8.56,2.45
-995,-1071,7301,10,-238,8,-5.33,-5.10,2.31
-590,-1114,7332,9,-209,1,-5.21,-2.04,2.27
-269,-1097,7297,10,-181,-5,-5.10,0.61,2.31
9,-1028,7260,15,-156,-10,-4.92,2.90,2.43
247,-929,7317,21,-140,-14,-4.65,4.92,2.59
548,-829,7463,27,-129,-16,-4.26,6.79,2.77
902,-727,7695,30,-115,-16,-3.82,8.49,2.95
1270,-637,7983,29,-100,-14,-3.38,9.98,3.11
1586,-584,8249,24,-83,-11,-3.00,11.25,3.21
1805,-544,8431,17,-69,-6,-2.72,12.29,3.25
1918,-502,8489,9,-58,0,-2.56,13.16,3.25
1951,-467,8441,3,-50,4,-2.52,13.87,3.18
1916,-432,8305,-1,-41,7,-2.53,14.46,3.09
1818,-416,8118,-1,-35,7,-2.58,14.94,3.00
1691,-374,7928,1,-28,5,-2.59,15.32,2.91
1556,-336,7793,4,-22,2,-2.55,15.60,2.86
484,-99,8099,-1,0,0,-1.00,3.03,5.70
472,-102,8076,0,0,0,-0.99,3.03,5.68
454,-110,8073,1,-1,0,-0.98,3.03,5.68
441,-119,8092,1,-1,0,-0.96,3.04,5.66
428,-127,8113,1,-1,0,-0.94,3.04,5.65
420,-138,8128,0,-1,0,-0.93,3.06,5.65
414,-140,8148,0,-1,0,-0.92,3.06,5.64
405,-137,8161,-1,-1,0,-0.92,3.06,5.64
392,-127,8167,0,-1,0,-0.92,3.07,5.63
380,-125,8170,0,-1,0,-0.92,3.07,5.63
364,-120,8179,0,-1,-1,-0.91,3.08,5.63
361,-129,8183,0,-1,-2,-0.90,3.08,5.65
379,-143,8169,-1,-1,-2,-0.91,3.09,5.67
404,-150,8143,-1,-1,-3,-0.91,3.10,5.70
435,-158,8117,-1,-1,-3,-0.92,3.11,5.73
470,-158,8099,0,-2,-2,-0.91,3.14,5.75
504,-158,8100,1,-2,-2,-0.89,3.18,5.77
539,-150,8123,1,-2,-1,-0.88,3.21,5.78
567,-150,8161,1,-2,-1,-0.85,3.24,5.79
578,-150,8185,1,-2,0,-0.84,3.26,5.79
585,-141,8200,0,-1,0,-0.83,3.28,5.78
586,-129,8201,-1,-1,1,-0.84,3.30,5.77
580,-120,8179,-1,0,1,-0.84,3.31,5.75
561,-110,8150,-1,0,1,-0.85,3.30,5.73
529,-105,8126,-1,1,0,-0.85,3.29,5.72
508,-96,8111,0,1,0,-0.85,3.26,5.70
496,-112,8106,0,4,0,-0.84,3.21,5.70
494,-120,8121,0,7,-1,-0.83,3.12,5.71
522,-130,8170,0,15,-2,-0.81,2.95,5.73
572,-123,8235,-1,27,-4,-0.81,2.62,5.76
581,-112,8280,-3,41,-5,-0.83,2.10,5.81
519,-97,8297,-6,52,-6,-0.89,1.42,5.88
432,-86,8281,-9,61,-6,-0.99,0.59,5.97
352,-79,8237,-10,76,-8,-1.12,-0.41,6.06
288,-116,8172,-8,103,-14,-1.24,-1.74,6.23
217,-166,8067,-6,135,-23,-1.35,-3.50,6.51
143,-239,7938,-5,162,-30,-1.46,-5.65,6.92
90,-300,7806,-4,183,-34,-1.59,-8.10,7.42
21,-328,7660,-3,202,-35,-1.74,-10.80,7.96
-102,-365,7499,-2,222,-32,-1.89,-13.76,8.50
-268,-376,7374,2,245,-29,-2.03,-17.03,9.06
-523,-369,7276,7,272,-26,-2.11,-20.65,9.66
-886,-345,7193,10,302,-23,-2.17,-24.70,10.34
-1380,-298,7089,8,327,-18,-2.25,-29.14,11.10
-2026,-273,6935,2,340,-14,-2.42,-33.84,11.91
-2764,-260,6713,-6,340,-10,-2.72,-38.59,12.76
-3542,-193,6396,-13,327,-7,-3.14,-43.23,13.64
-4252,-189,6001,-20,303,-6,-3.73,-47.59,14.53
-4862,-97,5577,-26,266,-4,-4.44,-51.48,15.37
-5341,-19,5222,-29,217,2,-5.13,-54.73,16.01
-5668,36,5003,-28,179,10,-5.65,-57.36,16.41
-5949,97,4863,-28,159,16,-6.00,-59.65,16.66
-6234,128,4704,-33,152,19,-6.29,-61.80,16.75
-6560,134,4481,-41,154,17,-6.73,-63.95,16.67
-6957,154,4137,-50,155,14,-7.42,-66.15,16.42
-7374,110,3691,-55,144,10,-8.40,-68.26,15.95
-7713,48,3157,-54,129,5,-9.65,-70.18,15.32
-7964,-64,2599,-49,111,1,-11.10,-71.87,14.60
-8125,-177,2100,-40,97,0,-12.63,-73.36,13.94
-8223,-296,1723,-31,91,-1,-14.22,-74.71,13.50
-8276,-395,1455,-23,91,-2,-15.98,-76.01,13.43
-8338,-448,1302,-18,90,-2,-17.99,-77.28,13.70
-8472,-482,1225,-13,89,-2,-20.25,-78.51,14.31
-8711,-525,1180,-12,83,-2,-22.82,-79.64,15.19
-8985,-568,1143,-13,69,-3,-25.62,-80.59,15.98
-9255,-665,1094,-14,49,-6,-28.43,-81.26,16.34
-9472,-737,1022,-15,27,-9,-30.92,-81.62,16.04
-9612,-821,910,-15,3,-10,-32.48,-81.69,15.02
-9736,-909,721,-12,-20,-10,-32.98,-81.48,13.44
-9860,-971,492,-7,-45,-10,-32.31,-81.01,11.96
-9999,-996,299,2,-74,-10,-30.42,-80.22,10.87
-10132,-1012,264,15,-109,-9,-27.44,-79.02,10.49
-10210,-949,466,26,-154,-8,-23.65,-77.25,10.46
-10195,-815,922,29,-212,-5,-19.47,-74.70,10.18
-9998,-669,1577,24,-276,0,-15.48,-71.25,9.31
-9517,-672,2352,18,-322,4,-12.25,-66.98,8.19
-8833,-704,3181,14,-325,4,-10.00,-62.43,7.25
-8149,-682,3946,7,-307,4,-8.52,-58.03,6.50
-7527,-676,4535,-2,-286,5,-7.54,-53.92,5.78
-7001,-688,4931,-10,-275,6,-6.90,-50.00,5.08
-6555,-750,5188,-11,-274,9,-6.43,-46.16,4.44
-6161,-771,5360,-7,-282,11,-5.98,-42.27,3.89
-5803,-777,5542,-1,-295,14,-5.53,-38.22,3.44
-5420,-773,5817,5,-306,15,-5.04,-34.01,3.08
-4975,-766,6197,9,-308,15,-4.56,-29.72,2.81
-4466,-781,6601,10,-297,12,-4.16,-25.52,2.61
-3922,-822,6975,7,-277,7,-3.89,-21.56,2.46
-3397,-855,7258,2,-254,4,-3.76,-17.91,2.35
-2908,-846,7405,-2,-229,1,-3.72,-14.59,2.28
-2433,-811,7452,-3,-202,-3,-3.72,-11.65,2.27
-1984,-787,7463,1,-173,-8,-3.71,-9.11,2.34
-1590,-765,7485,8,-142,-13,-3.64,-6.98,2.51
-1301,-720,7544,14,-118,-16,-3.47,-5.24,2.73
-1076,-668,7625,16,-108,-16,-3.27,-3.69,2.96
-840,-638,7716,14,-106,-13,-3.07,-2.19,3.15
-604,-623,7828,12,-103,-11,-2.90,-0.73,3.31
-362,-606,7924,10,-99,-8,-2.77,0.68,3.43
-128,-568,8003,8,-92,-6,-2.64,2.00,3.51
96,-542,8065,7,-80,-5,-2.54,3.18,3.57
189,-307,8198,-1,-2,0,-1.92,1.60,6.16
191,-291,8200,-1,-1,1,-1.92,1.61,6.14
182,-272,8202,-1,-1,1,-1.93,1.61,6.12
154,-275,8205,0,-1,1,-1.93,1.60,6.11
135,-281,8194,0,-1,0,-1.92,1.61,6.09
128,-285,8181,0,-2,0,-1.92,1.61,6.09
137,-299,8168,0,-3,-1,-1.92,1.64,6.09
163,-310,8151,0,-3,-1,-1.92,1.67,6.10
185,-313,8138,0,-3,-1,-1.91,1.71,6.10
210,-326,8123,0,-3,0,-1.91,1.73,6.10
228,-342,8110,0,-2,0,-1.91,1.75,6.09
224,-359,8097,0,-1,1,-1.90,1.76,6.08
200,-364,8085,1,0,1,-1.90,1.75,6.06
168,-361,8081,1,1,0,-1.88,1.72,6.05
128,-361,8082,1,0,0,-1.86,1.70,6.04
91,-343,8094,1,0,-1,-1.83,1.68,6.04
74,-323,8108,2,-1,-1,-1.80,1.67,6.05
79,-302,8124,1,-1,-2,-1.78,1.66,6.07
92,-279,8128,1,0,-3,-1.76,1.65,6.09
97,-279,8133,1,1,-3,-1.74,1.62,6.12
113,-262,8134,1,2,-3,-1.72,1.58,6.15
142,-241,8135,1,2,-4,-1.70,1.55,6.20
181,-232,8163,2,5,-5,-1.66,1.49,6.26
223,-219,8223,3,9,-6,-1.61,1.38,6.32
292,-215,8311,3,16,-7,-1.55,1.19,6.41
388,-205,8406,2,27,-8,-1.51,0.88,6.51
489,-187,8506,1,41,-9,-1.48,0.39,6.63
574,-172,8567,-1,59,-10,-1.47,-0.33,6.76
596,-134,8609,-1,79,-10,-1.47,-1.33,6.89
565,-96,8620,-1,106,-11,-1.48,-2.67,7.04
453,-59,8595,0,140,-15,-1.48,-4.47,7.25
246,-34,8523,1,176,-22,-1.48,-6.76,7.56
-25,-18,8396,3,208,-30,-1.49,-9.53,8.01
-343,-36,8210,5,230,-37,-1.52,-12.66,8.61
-682,-63,7988,5,243,-41,-1.60,-15.99,9.32
-999,-92,7751,6,246,-40,-1.72,-19.39,10.09
-1292,-128,7521,6,247,-36,-1.86,-22.79,10.89
-1583,-174,7317,7,247,-29,-2.02,-26.20,11.67
-1922,-210,7152,5,247,-20,-2.16,-29.62,12.39
-2362,-226,7017,3,247,-11,-2.29,-33.04,13.05
-2909,-198,6864,-2,244,-5,-2.44,-36.45,13.68
-3514,-179,6681,-7,236,-1,-2.64,-39.78,14.26
-4087,-153,6475,-12,225,-1,-2.91,-42.99,14.84
-4547,-82,6219,-17,214,-2,-3.28,-46.04,15.43
-4927,40,5914,-20,204,-3,-3.72,-48.93,16.03
-5277,122,5583,-23,192,-1,-4.22,-51.67,16.60
-5640,165,5229,-25,176,1,-4.74,-54.22,17.13
-6002,168,4877,-28,156,4,-5.25,-56.50,17.52
-6308,163,4553,-30,142,5,-5.78,-58.58,17.82
-6600,138,4256,-30,137,4,-6.39,-60.55,18.10
-6890,53,3949,-32,133,0,-7.13,-62.46,18.41
-7128,-21,3600,-34,130,-4,-8.14,-64.32,18.76
-7320,-101,3197,-36,123,-8,-9.38,-66.11,19.13
-7474,-184,2751,-36,108,-10,-10.84,-67.72,19.42
-7571,-338,2308,-31,89,-11,-12.35,-69.07,19.68
-7580,-556,1946,-23,72,-11,-13.86,-70.16,19.98
-7529,-790,1682,-14,61,-10,-15.30,-71.07,20.49
-7474,-974,1551,-7,54,-7,-16.55,-71.84,21.17
-7438,-1080,1537,-2,53,-2,-17.55,-72.57,21.99
-7512,-1095,1610,0,52,6,-18.23,-73.32,22.91
-7761,-1064,1758,2,52,12,-18.58,-74.07,23.87
-8205,-1022,1929,2,45,16,-18.59,-74.78,24.76
-8791,-961,2073,-2,30,15,-18.38,-75.31,25.29
-9401,-913,2178,-5,7,11,-17.98,-75.56,25.26
-9922,-884,2210,-7,-17,4,-17.55,-75.47,24.65
-10234,-875,2189,-6,-38,-7,-17.32,-75.06,23.78
-10314,-908,2197,-1,-58,-17,-17.28,-74.32,22.88
-10188,-936,2319,6,-81,-23,-17.17,-73.27,22.07
-9889,-960,2574,10,-113,-24,-16.71,-71.77,21.10
-9405,-1032,2954,8,-146,-20,-15.82,-69.79,19.74
-8798,-1132,3421,5,-167,-13,-14.71,-67.47,18.21
-8177,-1211,3922,2,-173,-5,-13.55,-65.00,16.70
-7619,-1284,4346,-2,-169,3,-12.44,-62.56,15.26
-7234,-1317,4643,-9,-169,11,-11.44,-60.18,13.81
-6981,-1356,4841,-15,-184,20,-10.45,-57.68,12.29
-6770,-1340,5023,-16,-209,28,-9.44,-54.90,10.74
-6516,-1280,5257,-14,-236,35,-8.38,-51.74,9.23
-6168,-1190,5582,-14,-251,40,-7.37,-48.31,7.83
-5744,-1072,5970,-15,-246,43,-6.49,-44.85,6.57
-5356,-966,6369,-16,-218,46,-5.77,-41.66,5.41
-5166,-877,6660,-18,-183,47,-5.23,-38.97,4.34
-5169,-804,6802,-20,-153,44,-4.85,-36.76,3.38
-5331,-707,6802,-17,-129,36,-4.60,-34.96,2.59
-5593,-592,6699,-12,-117,26,-4.40,-33.41,2.01
-5853,-445,6610,-5,-125,16,-4.22,-31.85,1.65
-5958,-305,6584,-1,-148,8,-4.03,-30.00,1.45
-5798,-217,6645,2,-173,3,-3.86,-27.78,1.37
-5378,-165,6801,3,-184,1,-3.69,-25.30,1.34
-4844,-110,6994,4,-174,1,-3.53,-22.85,1.31
-4374,-106,7179,4,-158,2,-3.37,-20.60,1.29
-3973,-149,7280,1,-141,2,-3.27,-18.59,1.26
-3655,-179,7297,-2,-132,0,-3.24,-16.75,1.23
-3368,-218,7255,-5,-138,-3,-3.26,-14.89,1.24
-3013,-289,7178,-8,-165,-3,-3.33,-12.72,1.24
-2483,-399,7070,-11,-196,1,-3.45,-10.09,1.21
-1846,-497,6961,-12,-208,8,-3.59,-7.19,1.08
-1257,-542,6917,-8,-190,15,-3.69,-4.42,0.86
-882,-576,6980,0,-152,17,-3.71,-2.12,0.62
-756,-597,7127,6,-107,12,-3.64,-0.48,0.42
241,-190,8226,-2,-2,-2,-1.39,2.04,4.61
252,-194,8210,-1,-2,-2,-1.40,2.06,4.63
254,-201,8184,-1,-2,-2,-1.41,2.07,4.65
249,-207,8157,-1,-3,-1,-1.42,2.10,4.66
248,-214,8136,-1,-3,-2,-1.43,2.13,4.67
259,-213,8116,0,-3,-2,-1.42,2.16,4.69
275,-210,8107,0,-3,-2,-1.42,2.20,4.71
284,-212,8121,1,-3,-2,-1.40,2.23,4.73
280,-212,8128,0,-2,-1,-1.39,2.26,4.74
248,-215,8130,0,-3,-1,-1.38,2.28,4.75
215,-216,8119,0,-4,-2,-1.37,2.31,4.77
199,-216,8091,0,-4,-3,-1.37,2.35,4.79
206,-225,8055,0,-4,-3,-1.36,2.40,4.83
224,-237,8008,0,-4,-4,-1.35,2.45,4.87
246,-244,7980,1,-5,-3,-1.34,2.51,4.91
266,-245,7979,2,-6,-3,-1.30,2.58,4.95
293,-235,7989,3,-7,-3,-1.26,2.67,4.99
339,-224,8018,3,-8,-4,-1.22,2.78,5.03
398,-206,8041,2,-8,-4,-1.18,2.89,5.07
462,-184,8059,2,-7,-4,-1.14,2.99,5.13
524,-154,8100,3,-6,-4,-1.08,3.09,5.18
596,-107,8167,4,-3,-4,-1.01,3.15,5.24
682,-64,8265,4,2,-4,-0.93,3.17,5.28
762,-31,8382,4,11,-4,-0.85,3.06,5.33
803,-5,8456,4,33,-5,-0.78,2.72,5.38
733,21,8470,6,64,-10,-0.68,1.96,5.49
560,32,8431,9,102,-19,-0.55,0.67,5.70
326,30,8371,13,135,-30,-0.36,-1.12,6.07
152,12,8328,17,159,-42,-0.15,-3.28,6.63
96,0,8337,17,172,-50,0.05,-5.63,7.34
125,-2,8382,16,180,-49,0.20,-8.08,8.09
134,30,8463,13,186,-42,0.30,-10.59,8.79
37,76,8540,7,184,-31,0.35,-13.09,9.37
-201,111,8567,-1,179,-20,0.31,-15.54,9.78
-555,161,8497,-10,174,-10,0.17,-17.93,10.05
-1028,184,8322,-16,171,-4,-0.03,-20.30,10.18
-1582,178,8046,-20,170,-1,-0.29,-22.68,10.26
-2152,162,7713,-21,169,-1,-0.57,-25.07,10.33
-2663,125,7349,-20,173,-5,-0.89,-27.52,10.45
-3094,119,6997,-17,181,-10,-1.21,-30.07,10.70
-3442,84,6659,-15,186,-14,-1.56,-32.69,11.05
-3715,33,6328,-12,193,-17,-1.92,-35.40,11.53
-3952,-8,6039,-8,199,-18,-2.29,-38.19,12.11
-4210,-64,5817,-5,199,-15,-2.64,-41.00,12.76
-4477,-98,5643,-5,195,-12,-2.98,-43.75,13.44
-4793,-121,5491,-7,189,-9,-3.33,-46.42,14.13
-5175,-143,5338,-10,183,-7,-3.74,-49.02,14.79
-5607,-101,5195,-13,176,-7,-4.20,-51.52,15.46
-6055,-48,5035,-16,170,-8,-4.75,-53.93,16.15
-6462,0,4849,-20,165,-11,-5.45,-56.28,16.87
-6808,24,4625,-24,159,-15,-6.37,-58.55,17.66
-7036,0,4364,-27,152,-20,-7.54,-60.71,18.48
-7172,-82,4077,-28,148,-23,-9.00,-62.76,19.38
-7306,-223,3774,-28,138,-25,-10.74,-64.69,20.36
-7384,-368,3461,-27,124,-25,-12.65,-66.41,21.34
-7376,-493,3183,-25,112,-23,-14.68,-67.93,22.32
-7350,-582,2931,-23,103,-19,-16.75,-69.30,23.32
-7354,-690,2730,-19,97,-14,-18.74,-70.57,24.40
-7420,-773,2584,-17,92,-9,-20.72,-71.77,25.57
-7595,-864,2480,-17,81,-5,-22.58,-72.85,26.67
-7805,-1010,2385,-18,70,-2,-24.31,-73.78,27.56
-8044,-1144,2301,-18,59,-2,-26.01,-74.55,28.28
-8274,-1291,2209,-18,46,-4,-27.71,-75.15,28.78
-8446,-1414,2094,-18,30,-6,-29.23,-75.54,28.95
-8534,-1516,1965,-17,11,-6,-30.34,-75.69,28.62
-8576,-1606,1848,-13,-6,-5,-30.91,-75.64,27.95
-8592,-1669,1729,-7,-19,-3,-30.91,-75.43,27.18
-8598,-1718,1636,-3,-35,-2,-30.40,-75.06,26.26
-8576,-1767,1638,3,-52,0,-29.32,-74.49,25.20
-8464,-1785,1854,10,-66,4,-27.73,-73.73,24.19
-8297,-1735,2285,12,-77,9,-25.73,-72.81,23.14
-8213,-1614,2835,6,-98,18,-23.27,-71.65,21.58
-8203,-1409,3432,-7,-136,30,-20.29,-70.06,19.16
-8171,-1218,3919,-21,-174,41,-17.08,-67.93,16.04
-8134,-1122,4225,-29,-187,47,-14.30,-65.53,12.91
-8174,-1027,4332,-30,-183,45,-12.14,-63.11,10.25
-8276,-947,4313,-24,-175,40,-10.48,-60.80,8.24
-8396,-880,4276,-14,-175,32,-9.17,-58.53,6.82
-8432,-799,4344,-5,-183,25,-8.09,-56.14,5.84
-8335,-708,4579,1,-199,20,-7.14,-53.53,5.17
-8093,-620,4992,5,-214,17,-6.29,-50.65,4.68
-7733,-544,5492,4,-222,15,-5.56,-47.59,4.25
-7262,-512,5998,1,-211,14,-5.01,-44.57,3.86
-6805,-483,6416,-3,-182,10,-4.66,-41.88,3.51
-6500,-461,6681,-6,-156,6,-4.47,-39.60,3.24
-6330,-421,6786,-9,-143,1,-4.41,-37.58,3.02
-6213,-376,6733,-10,-145,-4,-4.44,-35.61,2.88
-6061,-342,6588,-11,-162,-8,-4.51,-33.48,2.80
-5778,-343,6440,-9,-188,-11,-4.58,-31.01,2.77
-5323,-372,6336,-6,-214,-11,-4.61,-28.16,2.78
-4690,-434,6361,-3,-230,-8,-4.59,-25.00,2.80
-3926,-501,6516,0,-228,-3,-4.50,-21.77,2.78
-3235,-533,6760,0,-208,3,-4.41,-18.74,2.71
-2798,-568,6984,-2,-183,7,-4.34,-16.06,2.57
-2624,-616,7128,-5,-164,8,-4.31,-13.72,2.41
-2580,-655,7186,-7,-151,3,-4.35,-11.62,2.30
-2531,-666,7156,-7,-142,-5,-4.43,-9.66,2.30
-2404,-680,7016,-6,-137,-13,-4.53,-7.79,2.41
-2190,-701,6865,-3,-137,-18,-4.60,-5.93,2.62
-292,-319,8216,-2,0,1,-2.52,-1.18,6.81
-309,-325,8199,-2,0,0,-2.55,-1.19,6.79
-315,-331,8164,-2,0,0,-2.57,-1.21,6.78
-312,-336,8135,-2,0,0,-2.59,-1.22,6.78
-304,-352,8105,-1,-1,-1,-2.60,-1.23,6.78
-292,-366,8060,-1,-1,-1,-2.61,-1.22,6.78
-282,-384,8032,-1,-1,0,-2.62,-1.22,6.78
-275,-391,8008,0,-2,0,-2.62,-1.22,6.77
-268,-411,7987,0,-2,-1,-2.61,-1.20,6.77
-260,-418,7991,1,-2,-1,-2.59,-1.18,6.78
-239,-424,8012,1,-2,-1,-2.58,-1.16,6.79
-217,-421,8036,2,-2,-1,-2.55,-1.14,6.80
-202,-409,8072,2,-2,0,-2.51,-1.12,6.80
-199,-397,8126,3,-1,0,-2.48,-1.11,6.80
-212,-373,8187,2,-1,0,-2.43,-1.09,6.79
-221,-347,8244,2,-2,-1,-2.39,-1.08,6.79
-225,-316,8286,1,-2,-1,-2.36,-1.07,6.80
-218,-295,8317,1,-3,-2,-2.34,-1.05,6.81
-199,-281,8338,0,-3,-2,-2.32,-1.02,6.83
-169,-279,8351,0,-3,-2,-2.31,-0.98,6.85
-137,-292,8352,0,-3,-2,-2.30,-0.95,6.88
-105,-318,8344,-1,-3,-2,-2.30,-0.91,6.90
-65,-345,8332,-1,-3,-2,-2.32,-0.87,6.93
-23,-356,8317,-1,-2,-2,-2.33,-0.83,6.94
5,-366,8299,-1,-2,-1,-2.34,-0.80,6.95
20,-377,8273,-1,-2,0,-2.35,-0.77,6.95
22,-374,8252,-1,-2,0,-2.36,-0.75,6.95
19,-378,8225,-1,-3,0,-2.36,-0.71,6.94
8,-373,8207,0,-4,1,-2.37,-0.67,6.92
-1,-364,8205,0,-4,1,-2.36,-0.61,6.89
-21,-361,8203,0,-3,1,-2.35,-0.57,6.87
-50,-351,8196,0,-2,1,-2.35,-0.55,6.85
-68,-336,8185,0,-2,0,-2.34,-0.53,6.84
-80,-333,8169,0,-1,0,-2.33,-0.52,6.84
-83,-330,8160,0,0,-1,-2.32,-0.52,6.84
-84,-318,8151,0,1,0,-2.32,-0.53,6.84
-97,-307,8139,0,2,0,-2.31,-0.57,6.83
-121,-289,8141,0,4,0,-2.30,-0.63,6.82
-150,-276,8159,0,7,-1,-2.29,-0.73,6.82
-171,-273,8177,0,13,-2,-2.27,-0.91,6.83
-205,-263,8167,1,25,-4,-2.25,-1.22,6.87
-261,-268,8124,2,44,-8,-2.22,-1.78,6.97
-342,-263,8043,5,65,-14,-2.16,-2.63,7.14
-414,-280,7970,8,83,-21,-2.06,-3.74,7.42
-435,-289,7910,11,96,-27,-1.94,-5.03,7.79
-395,-315,7879,12,103,-28,-1.82,-6.42,8.22
-312,-309,7881,12,108,-26,-1.70,-7.87,8.64
-246,-326,7912,11,112,-21,-1.60,-9.36,9.01
-247,-325,7956,9,115,-15,-1.51,-10.90,9.31
-312,-323,7993,6,124,-10,-1.46,-12.52,9.53
-477,-304,7976,2,137,-7,-1.45,-14.33,9.71
-700,-299,7890,0,155,-7,-1.47,-16.39,9.91
-1011,-269,7740,0,179,-9,-1.52,-18.77,10.16
-1437,-212,7537,1,198,-11,-1.58,-21.46,10.48
-1930,-142,7340,2,205,-13,-1.64,-24.33,10.89
-2394,-33,7174,2,206,-14,-1.71,-27.22,11.36
-2799,50,7011,0,204,-15,-1.83,-30.09,11.87
-3114,126,6851,-3,207,-14,-2.00,-32.97,12.41
-3391,152,6676,-5,216,-12,-2.20,-35.94,12.99
-3673,122,6425,-8,228,-9,-2.47,-39.08,13.60
-4004,85,6092,-11,238,-7,-2.82,-42.39,14.25
-4408,65,5702,-13,246,-5,-3.21,-45.82,14.99
-4921,39,5296,-14,244,-3,-3.64,-49.29,15.84
-5488,57,4935,-13,231,-1,-4.09,-52.64,16.77
-6056,102,4683,-12,212,0,-4.51,-55.75,17.80
-6593,136,4534,-13,193,-1,-4.98,-58.56,18.91
-7043,132,4425,-18,173,-2,-5.56,-61.08,19.96
-7386,127,4308,-25,156,-4,-6.34,-63.33,20.92
-7640,82,4139,-30,141,-6,-7.33,-65.36,21.72
-7787,-5,3930,-33,133,-7,-8.53,-67.23,22.44
-7865,-79,3675,-34,126,-8,-9.94,-68.98,23.17
-7940,-178,3389,-34,119,-7,-11.52,-70.65,23.92
-8045,-284,3077,-34,109,-5,-13.19,-72.19,24.62
-8186,-377,2770,-33,97,-3,-14.90,-73.57,25.24
-8355,-502,2486,-31,86,-2,-16.64,-74.79,25.83
-8506,-629,2209,-28,78,-4,-18.58,-75.89,26.47
-8646,-737,1946,-25,70,-6,-20.72,-76.86,27.20
-8754,-865,1706,-22,59,-6,-22.96,-77.67,27.90
-8804,-1006,1539,-17,49,-7,-25.19,-78.32,28.65
-8805,-1128,1457,-13,40,-6,-27.27,-78.83,29.41
-8820,-1231,1425,-11,26,-3,-28.87,-79.17,29.91
-8877,-1309,1385,-10,7,3,-29.57,-79.33,29.74
-8959,-1362,1307,-8,-13,7,-29.21,-79.28,28.84
-9042,-1393,1244,-3,-30,10,-27.93,-79.04,27.57
-9099,-1380,1247,6,-45,12,-26.03,-78.62,26.38
-9141,-1326,1369,14,-63,13,-23.56,-77.97,25.29
-9111,-1248,1671,20,-79,14,-20.77,-77.06,24.18
-9051,-1106,2099,21,-95,14,-17.88,-75.88,22.96
-8938,-1023,2540,18,-110,16,-15.12,-74.45,21.46
-8767,-992,2952,17,-108,15,-12.86,-72.94,20.12
-8623,-898,3289,17,-100,12,-11.10,-71.51,19.13
-8534,-806,3581,17,-101,11,-9.64,-70.10,18.31
-8480,-691,3856,14,-120,11,-8.32,-68.48,17.38
-8450,-579,4152,7,-160,16,-6.97,-66.38,16.04
-8399,-462,4458,-2,-211,23,-5.62,-63.60,14.22
-8278,-363,4723,-12,-260,29,-4.41,-60.12,12.13
-7964,-374,4948,-17,-275,30,-3.48,-56.28,10.15
-7534,-397,5128,-15,-241,23,-2.93,-52.74,8.67
-7142,-450,5270,-9,-180,12,-2.65,-49.97,7.79
-309,-362,8182,-1,-1,-1,-2.74,-2.78,7.68
-311,-356,8216,-1,1,-1,-2.74,-2.79,7.70
-309,-347,8241,-2,1,-1,-2.75,-2.81,7.70
-314,-344,8240,-2,0,0,-2.77,-2.82,7.70
-306,-348,8230,-2,-2,0,-2.79,-2.80,7.70
-296,-355,8219,-2,-3,1,-2.81,-2.77,7.67
-296,-375,8211,-2,-3,2,-2.83,-2.73,7.64
-309,-391,8199,-2,-3,2,-2.85,-2.69,7.60
-329,-404,8182,-3,-2,2,-2.89,-2.67,7.57
-346,-415,8158,-3,-1,1,-2.91,-2.67,7.55
-364,-425,8135,-2,0,1,-2.94,-2.68,7.52
-395,-433,8133,-1,0,1,-2.96,-2.70,7.50
-421,-442,8137,-1,-1,0,-2.96,-2.70,7.49
-424,-445,8165,0,-3,0,-2.97,-2.68,7.49
-395,-436,8187,-1,-4,-1,-2.97,-2.63,7.49
-352,-427,8198,-1,-5,0,-2.98,-2.56,7.49
-299,-417,8195,-1,-6,0,-2.98,-2.48,7.48
-239,-397,8211,0,-6,2,-2.97,-2.39,7.45
-184,-383,8254,0,-5,3,-2.96,-2.31,7.41
-166,-372,8301,0,-2,4,-2.94,-2.26,7.36
-196,-364,8326,-1,0,5,-2.94,-2.26,7.28
-257,-350,8325,-2,1,5,-2.95,-2.28,7.20
-337,-347,8302,-3,0,4,-2.98,-2.31,7.13
-409,-349,8271,-3,-1,3,-3.01,-2.32,7.07
-447,-353,8262,-2,0,2,-3.03,-2.34,7.03
-441,-358,8269,-2,4,1,-3.04,-2.40,7.01
-410,-368,8292,-1,11,-1,-3.05,-2.54,7.00
-384,-368,8321,-1,23,-2,-3.04,-2.82,7.02
-363,-377,8340,0,40,-5,-3.04,-3.30,7.08
-370,-391,8346,2,67,-9,-3.02,-4.12,7.19
-466,-411,8321,5,95,-15,-2.98,-5.36,7.40
-617,-420,8271,6,116,-22,-2.93,-6.91,7.70
-766,-420,8222,7,127,-27,-2.89,-8.65,8.10
-838,-418,8186,8,138,-31,-2.86,-10.51,8.59
-892,-399,8182,10,155,-33,-2.84,-12.56,9.13
-1000,-394,8217,12,181,-34,-2.80,-14.93,9.74
-1185,-377,8299,12,211,-36,-2.80,-17.71,10.43
-1459,-379,8367,8,239,-41,-2.90,-20.89,11.24
-1729,-376,8292,0,260,-44,-3.18,-24.37,12.16
-1983,-395,8000,-8,271,-45,-3.67,-28.04,13.14
-2192,-442,7489,-13,268,-41,-4.32,-31.72,14.14
-2416,-497,6929,-12,258,-32,-5.01,-35.29,15.11
-2692,-552,6417,-7,245,-20,-5.62,-38.70,16.04
-3071,-563,6026,-4,235,-10,-6.11,-41.97,16.96
-3479,-550,5799,-2,231,-4,-6.54,-45.18,17.92
-3836,-531,5698,-3,240,-4,-7.03,-48.44,19.03
-4213,-516,5644,-10,249,-4,-7.70,-51.82,20.33
-4622,-479,5565,-21,248,-2,-8.64,-55.21,21.69
-5136,-383,5370,-36,228,2,-9.79,-58.42,22.90
-5674,-263,5035,-49,194,7,-11.09,-61.23,23.71
-6113,-112,4568,-59,162,9,-12.44,-63.59,24.04
-6432,-45,3995,-63,142,8,-13.92,-65.66,24.02
-6713,-73,3273,-63,129,6,-15.60,-67.55,23.84
-6966,-209,2480,-58,114,7,-17.40,-69.28,23.59
-7138,-349,1823,-45,100,7,-19.15,-70.83,23.50
-7276,-535,1408,-32,92,8,-20.79,-72.22,23.75
-7428,-677,1262,-22,92,7,-22.50,-73.54,24.49
-7721,-764,1283,-21,88,9,-24.24,-74.80,25.44
-8161,-836,1295,-25,70,10,-25.87,-75.85,25.99
-8637,-897,1246,-30,37,11,-26.95,-76.55,25.59
-9023,-937,1181,-31,2,9,-27.23,-76.80,24.05
-9335,-978,1065,-27,-29,8,-26.74,-76.65,21.86
-9667,-1039,944,-20,-57,8,-25.50,-76.16,19.49
-10040,-1072,910,-9,-89,7,-23.63,-75.26,17.36
-10426,-1055,1074,2,-134,5,-21.13,-73.81,15.48
-10591,-984,1479,7,-186,3,-18.30,-71.61,13.66
-10335,-1014,2092,9,-207,-3,-15.84,-68.90,12.19
-9828,-1033,2810,11,-209,-8,-14.08,-66.01,11.17
-9215,-1033,3491,9,-208,-8,-12.72,-63.09,10.41
-8638,-1039,4112,5,-222,-1,-11.50,-60.02,9.60
-8156,-1008,4628,-1,-253,9,-10.28,-56.60,8.63
-7813,-942,5007,-8,-296,18,-9.08,-52.65,7.48
-7467,-920,5363,-12,-338,23,-8.02,-48.13,6.29
-7030,-874,5742,-14,-362,24,-7.17,-43.19,5.24
-6432,-895,6191,-15,-359,21,-6.57,-38.17,4.39
-5759,-892,6693,-14,-320,17,-6.21,-33.53,3.75
-5231,-918,7074,-15,-270,12,-6.03,-29.55,3.29
-4908,-969,7272,-12,-219,4,-5.98,-26.32,3.01
-4802,-966,7282,-7,-181,-7,-6.00,-23.72,2.93
-4762,-966,7164,-1,-162,-19,-6.03,-21.48,3.08
-4634,-951,7020,3,-160,-30,-6.06,-19.32,3.42
-4246,-919,6927,7,-169,-38,-6.06,-17.04,3.90
-3661,-881,6878,7,-183,-38,-6.03,-14.53,4.41
-2962,-878,6860,6,-199,-31,-5.98,-11.77,4.84
-2202,-910,6895,6,-200,-22,-5.90,-8.89,5.15
-1530,-944,7000,8,-180,-15,-5.80,-6.22,5.36
-1061,-952,7192,12,-142,-12,-5.64,-4.04,5.53
-866,-920,7374,13,-102,-13,-5.46,-2.44,5.70
-914,-867,7407,10,-74,-17,-5.31,-1.33,5.91
-1023,-822,7319,9,-61,-23,-5.18,-0.49,6.20
-1026,-768,7220,13,-57,-29,-5.01,0.27,6.58
-871,-714,7179,17,-61,-32,-4.78,1.10,7.01
-571,-662,7249,18,-68,-30,-4.51,2.03,7.42
-206,-610,7437,17,-69,-25,-4.23,3.04,7.78
147,-569,7682,15,-63,-19,-3.99,3.98,8.06
434,-550,7890,12,-49,-15,-3.78,4.76,8.27
632,-541,8010,10,-32,-13,-3.62,5.30,8.45
753,-532,8010,9,-17,-11,-3.48,5.62,8.60
813,-522,7981,10,-7,-10,-3.32,5.76,8.73
-496,-231,8155,0,-1,0,-1.65,-3.64,9.66
-475,-220,8169,1,0,1,-1.64,-3.63,9.64
-479,-203,8195,1,0,2,-1.61,-3.63,9.60
-507,-188,8232,1,-1,2,-1.58,-3.64,9.57
-545,-169,8274,1,-1,2,-1.55,-3.63,9.53
-580,-161,8318,0,-2,1,-1.53,-3.63,9.51
-609,-159,8339,-1,-2,0,-1.52,-3.61,9.50
-618,-155,8337,-1,-3,-1,-1.52,-3.60,9.50
-606,-155,8315,-2,-3,-2,-1.54,-3.57,9.51
-571,-158,8277,-2,-3,-2,-1.55,-3.53,9.53
-528,-166,8240,-1,-3,-1,-1.56,-3.50,9.54
-486,-186,8228,0,-3,-1,-1.56,-3.46,9.55
-439,-197,8227,0,-3,0,-1.56,-3.41,9.55
-398,-208,8224,-1,-2,0,-1.56,-3.38,9.54
-362,-224,8230,-1,1,0,-1.56,-3.38,9.53
-346,-237,8217,-1,5,1,-1.57,-3.43,9.51
-366,-260,8204,-2,9,1,-1.59,-3.54,9.50
-408,-267,8191,-1,15,-1,-1.60,-3.73,9.50
-454,-273,8176,0,25,-3,-1.60,-4.04,9.52
-500,-303,8152,1,43,-7,-1.60,-4.57,9.62
-587,-333,8082,3,67,-14,-1.58,-5.43,9.80
-696,-362,7974,6,87,-21,-1.54,-6.59,10.08
-740,-391,7891,10,103,-27,-1.47,-7.98,10.48
-710,-411,7900,13,118,-30,-1.38,-9.55,10.96
-636,-402,8025,13,131,-29,-1.29,-11.29,11.46
-585,-386,8240,10,148,-27,-1.23,-13.21,11.96
-632,-361,8445,3,165,-24,-1.26,-15.37,12.43
-751,-360,8589,-6,185,-23,-1.43,-17.81,12.89
-876,-347,8646,-13,215,-24,-1.73,-20.60,13.38
-1031,-325,8579,-19,254,-27,-2.17,-23.91,13.97
-1228,-333,8348,-22,297,-31,-2.74,-27.80,14.72
-1453,-341,7956,-26,329,-33,-3.49,-32.18,15.64
-1659,-313,7477,-31,342,-28,-4.39,-36.81,16.67
-1785,-278,6977,-36,341,-18,-5.43,-41.45,17.71
-1992,-144,6527,-43,329,1,-6.46,-45.96,18.61
-2410,-6,6127,-52,310,22,-7.40,-50.29,19.21
-3046,127,5640,-67,280,39,-8.24,-54.30,19.35
-3823,271,4979,-83,244,52,-9.00,-57.92,18.82
-4684,434,4140,-90,207,60,-9.56,-61.11,17.65
-5594,452,3201,-87,174,60,-9.89,-63.92,16.00
-6477,356,2263,-75,148,56,-10.01,-66.37,14.19
-7142,219,1514,-58,139,47,-10.08,-68.65,12.64
-7597,157,1012,-41,140,39,-10.13,-70.88,11.62
-7972,141,704,-27,136,36,-10.03,-73.05,11.09
-8384,146,513,-19,121,37,-9.56,-75.02,10.81
-8822,120,396,-15,95,35,-8.67,-76.66,10.63
-9194,45,355,-10,66,31,-7.44,-77.87,10.42
-9436,-57,336,-5,40,26,-6.09,-78.65,10.27
-9565,-146,369,2,23,23,-4.64,-79.15,10.34
-9668,-199,533,10,13,20,-3.11,-79.44,10.93
-9805,-223,783,16,6,16,-1.66,-79.61,11.95
-9993,-205,1031,18,-4,12,-0.42,-79.63,13.09
-10226,-150,1236,17,-24,8,0.54,-79.39,13.95
-10413,-95,1453,18,-50,2,1.06,-78.79,14.40
-10474,-73,1679,18,-79,-5,1.08,-77.80,14.43
-10364,-111,1850,16,-109,-10,0.69,-76.40,14.04
-10076,-166,2017,15,-141,-11,0.21,-74.55,13.36
-9687,-221,2247,17,-174,-9,-0.04,-72.24,12.56
-9281,-205,2658,18,-203,-4,-0.03,-69.48,11.71
-9011,-116,3230,14,-231,-1,0.15,-66.29,10.73
-8840,-112,3752,3,-255,0,0.25,-62.74,9.61
-8710,-121,4121,-7,-271,-5,0.06,-58.98,8.51
-8459,-98,4362,-13,-286,-14,-0.33,-55.04,7.58
-8039,-77,4487,-15,-304,-21,-0.82,-50.88,6.90
-7404,-109,4593,-16,-321,-23,-1.29,-46.46,6.38
-6627,-102,4770,-15,-328,-20,-1.66,-41.89,6.00
-5811,-108,5107,-13,-325,-14,-1.90,-37.29,5.68
-5102,-115,5558,-12,-308,-7,-2.02,-32.87,5.39
-4621,-139,5982,-14,-290,-2,-2.13,-28.70,5.09
-4319,-198,6345,-16,-267,-1,-2.28,-24.87,4.81
-4069,-227,6689,-15,-239,-8,-2.46,-21.44,4.68
-3774,-266,6968,-13,-209,-16,-2.66,-18.43,4.71
-3424,-299,7104,-13,-181,-23,-2.89,-15.80,4.89
-3095,-338,7085,-11,-167,-27,-3.10,-13.44,5.15
-2847,-355,6996,-6,-171,-27,-3.25,-11.11,5.45
-2591,-370,6956,-2,-195,-26,-3.33,-8.51,5.76
-2112,-397,7063,-1,-213,-23,-3.36,-5.59,6.04
-1405,-424,7318,-2,-207,-22,-3.39,-2.62,6.32
-558,-450,7655,-1,-169,-22,-3.41,-0.01,6.61
106,-469,7933,-2,-112,-20,-3.42,1.86,6.90
477,-525,8103,-3,-62,-18,-3.45,2.98,7.16
602,-562,8113,-4,-31,-18,-3.50,3.55,7.41
605,-588,7991,-5,-20,-19,-3.56,3.88,7.67
624,-591,7869,-3,-23,-17,-3.59,4.19,7.92
688,-584,7758,0,-28,-14,-3.59,4.58,8.13
760,-578,7699,2,-36,-10,-3.55,5.07,8.29
828,-562,7717,4,-42,-6,-3.49,5.66,8.38
931,-550,7808,4,-40,-2,-3.43,6.23,8.41
1020,-533,7943,3,-30,0,-3.37,6.70,8.41
1053,-518,8081,2,-15,1,-3.34,6.97,8.39
1055,-492,8197,0,2,-2,-3.32,7.00,8.40
1064,-469,8253,-1,16,-4,-3.31,6.83,8.44
1057,-442,8226,-4,26,-5,-3.33,6.50,8.49
993,-439,8118,-4,29,-4,-3.37,6.09,8.54
906,-436,7964,-2,28,-4,-3.39,5.69,8.58
827,-459,7858,2,24,-5,-3.37,5.33,8.64
768,-484,7828,4,22,-6,-3.31,5.01,8.70
730,-497,7857,4,21,-6,-3.24,4.71,8.76
709,-502,7904,4,21,-7,-3.18,4.41,8.85
-262,-407,8164,-1,-1,-2,-3.01,-2.58,10.05
-249,-409,8174,-1,-2,-1,-3.02,-2.54,10.05
-254,-412,8197,-1,-3,-1,-3.02,-2.50,10.06
-262,-414,8220,-1,-4,-1,-3.03,-2.46,10.06
-261,-403,8238,-2,-4,-1,-3.04,-2.41,10.06
-253,-399,8237,-2,-3,0,-3.06,-2.36,10.06
-249,-385,8220,-2,-2,1,-3.08,-2.32,10.05
-260,-381,8213,-2,-2,1,-3.10,-2.30,10.03
-292,-373,8211,-1,-3,1,-3.10,-2.28,10.00
-332,-359,8224,-1,-3,2,-3.11,-2.25,9.97
-378,-342,8237,-1,-2,1,-3.10,-2.23,9.94
-433,-340,8233,-2,-3,1,-3.12,-2.22,9.92
-473,-349,8230,-2,-3,0,-3.14,-2.20,9.90
-502,-365,8203,-3,-4,0,-3.16,-2.17,9.90
-513,-384,8145,-4,-5,-1,-3.21,-2.13,9.90
-509,-397,8072,-3,-5,-1,-3.24,-2.07,9.91
-496,-417,7999,-2,-6,-2,-3.27,-2.01,9.92
-449,-422,7962,-1,-5,-1,-3.28,-1.94,9.94
-364,-427,7978,1,-2,-1,-3.27,-1.90,9.95
-277,-428,8026,1,3,0,-3.25,-1.92,9.95
-202,-440,8110,1,11,0,-3.23,-2.03,9.94
-146,-441,8187,-1,23,0,-3.23,-2.29,9.93
-144,-458,8227,-2,36,-1,-3.25,-2.73,9.94
-205,-462,8210,-2,50,-4,-3.28,-3.38,9.98
-325,-471,8123,-1,67,-9,-3.30,-4.26,10.09
-486,-481,8029,1,79,-15,-3.31,-5.32,10.29
-594,-466,8008,5,88,-21,-3.29,-6.52,10.59
-644,-432,8088,6,93,-24,-3.24,-7.79,10.96
-660,-379,8286,6,102,-24,-3.20,-9.13,11.35
-731,-326,8546,3,113,-24,-3.19,-10.62,11.75
-856,-272,8778,-2,123,-24,-3.25,-12.24,12.15
-1001,-239,8920,-9,134,-25,-3.43,-14.02,12.56
-1164,-231,8895,-16,141,-24,-3.73,-15.91,12.96
-1352,-268,8708,-20,143,-21,-4.12,-17.85,13.33
-1587,-305,8425,-22,137,-17,-4.53,-19.75,13.63
-1890,-353,8105,-23,123,-12,-4.96,-21.49,13.86
-2214,-404,7805,-23,104,-7,-5.38,-23.01,14.00
-2501,-466,7539,-23,88,-4,-5.77,-24.30,14.06
-2708,-531,7351,-22,84,-3,-6.15,-25.48,14.10
-2875,-599,7267,-19,92,-4,-6.52,-26.72,14.17
-3012,-660,7280,-19,107,-7,-6.90,-28.13,14.30
-3147,-689,7297,-21,125,-9,-7.35,-29.76,14.51
-3304,-711,7219,-25,139,-11,-7.89,-31.60,14.76
-3510,-720,7013,-27,147,-11,-8.52,-33.58,15.02
-3753,-725,6715,-26,147,-9,-9.18,-35.60,15.28
-4010,-734,6361,-24,144,-8,-9.83,-37.61,15.55
-4255,-774,5976,-20,138,-6,-10.45,-39.57,15.85
-4450,-839,5639,-16,133,-3,-11.02,-41.45,16.16
-4585,-934,5398,-10,133,0,-11.53,-43.30,16.53
-4671,-1012,5270,-6,142,2,-12.00,-45.23,16.99
-4733,-1064,5210,-5,158,4,-12.49,-47.33,17.58
-4834,-1122,5108,-5,178,5,-13.08,-49.69,18.31
-5018,-1180,4906,-7,195,6,-13.85,-52.31,19.23
-5285,-1179,4622,-7,202,8,-14.77,-55.08,20.34
-5698,-1125,4307,-7,192,13,-15.71,-57.80,21.56
-6185,-1067,3983,-8,167,18,-16.54,-60.27,22.76
-6665,-1010,3634,-10,131,21,-17.20,-62.30,23.73
-7009,-1002,3337,-8,97,24,-17.58,-63.89,24.44
-7228,-1026,3146,-4,79,26,-17.68,-65.16,25.02
-7369,-1076,3090,0,79,27,-17.66,-66.34,25.69
-7483,-1051,3196,2,90,25,-17.70,-67.62,26.67
-7658,-993,3350,-1,98,25,-17.86,-68.99,27.88
-7922,-932,3447,-9,93,26,-18.05,-70.33,28.94
-8277,-859,3446,-17,75,28,-18.11,-71.50,29.56
-8670,-804,3242,-23,52,29,-17.92,-72.40,29.59
-8987,-811,2888,-23,31,25,-17.58,-73.03,29.16
-9195,-853,2538,-14,18,21,-17.18,-73.47,28.76
-9303,-889,2319,-4,9,17,-16.70,-73.75,28.59
-9360,-890,2308,3,2,15,-16.07,-73.91,28.60
-9453,-865,2476,5,-9,13,-15.27,-73.88,28.51
-9568,-838,2733,4,-25,12,-14.35,-73.63,28.05
-9638,-829,2934,-1,-40,7,-13.49,-73.13,27.19
-9633,-847,3013,-4,-57,3,-12.79,-72.41,26.00
-9542,-881,2964,-3,-76,-1,-12.23,-71.45,24.66
-9420,-892,2871,-1,-105,-1,-11.53,-70.14,23.14
-9302,-866,2841,1,-149,3,-10.52,-68.30,21.34
-9076,-821,2949,1,-198,8,-9.25,-65.78,19.22
-8712,-781,3263,1,-230,12,-7.97,-62.72,17.13
-8243,-748,3702,2,-236,14,-6.80,-59.44,15.32
-7811,-711,4146,1,-219,15,-5.89,-56.29,13.89
-7443,-713,4514,2,-185,13,-5.21,-53.57,12.84
-7248,-707,4702,3,-152,7,-4.76,-51.34,12.15
-7224,-690,4684,6,-145,3,-4.44,-49.37,11.68
-7229,-643,4715,12,-164,1,-4.09,-47.24,11.34
-7117,-521,4941,15,-199,1,-3.66,-44.67,11.02
-6849,-398,5354,11,-237,4,-3.22,-41.53,10.59
-6401,-292,5902,1,-267,10,-2.88,-37.90,9.96
-5783,-272,6520,-8,-270,15,-2.66,-34.06,9.24
-5159,-261,7076,-16,-234,17,-2.59,-30.57,8.54
-4746,-277,7410,-21,-178,14,-2.66,-27.82,7.97
-4654,-322,7366,-22,-126,5,-2.86,-25.90,7.57
-4771,-385,7006,-17,-97,-8,-3.11,-24.55,7.42
-4834,-429,6552,-6,-93,-20,-3.32,-23.38,7.53
-4726,-442,6197,7,-108,-27,-3.38,-22.05,7.82
-4434,-420,6057,15,-135,-27,-3.31,-20.35,8.17
-3967,-390,6226,17,-162,-23,-3.13,-18.21,8.48
-3278,-390,6682,14,-181,-19,-2.95,-15.71,8.70
-2402,-391,7261,6,-171,-13,-2.86,-13.16,8.83
-1659,-370,7724,-5,-139,-4,-2.87,-10.97,8.85
-571,-453,8187,-2,-2,-5,-3.25,-3.20,9.91
-544,-453,8188,-2,-2,-5,-3.27,-3.18,9.97
-521,-452,8175,-2,-2,-5,-3.30,-3.16,10.03
-492,-448,8146,-3,-4,-5,-3.33,-3.12,10.10
-453,-430,8096,-2,-4,-6,-3.36,-3.05,10.17
-382,-417,8056,-1,-5,-6,-3.37,-2.98,10.25
-300,-400,8061,1,-5,-5,-3.36,-2.90,10.32
-219,-380,8099,1,-5,-4,-3.34,-2.81,10.38
-140,-361,8154,1,-4,-3,-3.31,-2.74,10.41
-72,-354,8207,0,-3,-2,-3.30,-2.66,10.44
-30,-360,8238,-1,-2,0,-3.29,-2.61,10.44
-18,-368,8229,-1,1,1,-3.30,-2.60,10.42
-20,-385,8206,-1,4,2,-3.31,-2.63,10.38
-35,-417,8185,-1,9,3,-3.31,-2.72,10.34
-67,-439,8173,-1,19,2,-3.32,-2.94,10.31
-143,-437,8163,0,38,0,-3.32,-3.39,10.29
-260,-453,8140,1,66,-6,-3.31,-4.20,10.36
-377,-493,8152,3,101,-16,-3.30,-5.47,10.56
-480,-531,8181,4,140,-27,-3.28,-7.28,10.94
-576,-565,8188,2,171,-36,-3.34,-9.53,11.49
-658,-574,8185,0,195,-40,-3.46,-12.12,12.14
-733,-608,8166,-3,219,-43,-3.67,-15.00,12.88
-776,-657,8098,-6,247,-46,-4.01,-18.24,13.73
-794,-708,7942,-10,275,-46,-4.48,-21.85,14.66
-732,-770,7697,-12,311,-44,-5.08,-25.88,15.71
-720,-755,7329,-14,343,-39,-5.81,-30.38,16.88
-909,-772,6834,-17,354,-27,-6.65,-35.12,18.12
-1269,-758,6272,-21,346,-11,-7.56,-39.85,19.33
-1714,-686,5709,-24,324,5,-8.45,-44.39,20.45
-2143,-548,5257,-24,304,20,-9.21,-48.66,21.51
-2635,-371,4920,-25,281,36,-9.76,-52.67,22.49
-3257,-215,4673,-31,256,52,-10.04,-56.38,23.26
-4055,4,4427,-39,226,66,-9.95,-59.75,23.68
-5069,164,4113,-46,192,75,-9.44,-62.72,23.64
-6186,311,3727,-50,155,77,-8.52,-65.24,23.15
-7281,378,3256,-50,126,71,-7.34,-67.34,22.35
-8237,365,2719,-45,106,58,-6.19,-69.12,21.54
-8982,330,2189,-35,92,43,-5.22,-70.69,21.02
-9492,251,1798,-22,82,29,-4.47,-72.08,21.00
-9809,176,1599,-12,68,20,-3.86,-73.24,21.40
-10016,103,1583,-7,49,15,-3.34,-74.12,21.88
-10093,38,1676,-7,21,12,-2.83,-74.59,21.99
-9986,-35,1836,-7,2,10,-2.39,-74.73,21.74
-9818,-124,1992,-5,-4,9,-2.02,-74.71,21.35
-9762,-229,2012,-4,-15,9,-1.65,-74.58,20.88
-9840,-315,1926,-2,-38,11,-1.18,-74.19,20.18
-9955,-350,1892,6,-67,10,-0.64,-73.43,19.35
-10035,-350,1973,12,-90,6,-0.18,-72.32,18.61
-10055,-291,2202,14,-120,3,0.16,-70.80,17.76
-9968,-159,2633,13,-157,3,0.45,-68.75,16.63
-9710,32,3189,5,-198,6,0.74,-66.10,15.14
-9123,6,3779,-1,-198,7,0.91,-63.21,13.59
-8488,-46,4270,-1,-152,0,0.86,-60.81,12.54
-8060,-133,4546,0,-108,-4,0.71,-59.09,11.98
-7827,-160,4679,3,-90,-5,0.58,-57.77,11.67
-7718,-126,4760,2,-103,-4,0.51,-56.39,11.38
-7635,-41,4809,-1,-141,-2,0.45,-54.58,10.91
-7484,55,4877,-5,-191,4,0.45,-52.11,10.21
-7237,151,5062,-8,-228,10,0.51,-49.05,9.35
-6790,122,5367,-7,-224,11,0.57,-45.84,8.55
-6257,30,5740,-4,-164,2,0.54,-43.25,8.05
-5877,-60,6008,-3,-92,-7,0.42,-41.67,7.88
-5752,-159,6094,-2,-44,-12,0.23,-40.88,7.90
-5808,-165,5998,-1,-31,-16,0.01,-40.46,8.05
-5877,-131,5828,0,-50,-18,-0.19,-39.92,8.23
-5853,-69,5720,3,-85,-17,-0.35,-38.93,8.39
-5761,26,5708,1,-131,-13,-0.44,-37.32,8.42
-5562,87,5841,-2,-180,-5,-0.49,-35.01,8.26
-5167,111,6158,-5,-205,1,-0.50,-32.21,7.97
-4651,94,6594,-8,-192,5,-0.53,-29.41,7.62
-4198,65,7007,-12,-153,6,-0.62,-27.06,7.29
-3989,44,7233,-16,-110,4,-0.76,-25.34,7.02
-4033,8,7173,-16,-84,0,-0.97,-24.11,6.83
-4183,4,6947,-13,-79,-7,-1.17,-23.08,6.75
-4284,18,6717,-6,-91,-12,-1.31,-21.98,6.80
-4264,61,6560,1,-111,-16,-1.36,-20.60,6.93
-4122,106,6582,4,-141,-17,-1.35,-18.83,7.11
-3753,112,6851,5,-173,-16,-1.31,-16.56,7.26
-3110,99,7295,1,-185,-12,-1.29,-13.98,7.36
-2388,47,7756,-6,-171,-5,-1.35,-11.46,7.37
-1823,-27,8093,-13,-141,1,-1.49,-9.29,7.29
-1541,-96,8245,-17,-107,3,-1.69,-7.64,7.18
-1537,-172,8196,-17,-78,0,-1.93,-6.47,7.11
-1680,-224,7982,-15,-60,-9,-2.15,-5.63,7.15
-1786,-277,7726,-10,-54,-19,-2.32,-4.95,7.35
-1746,-299,7548,-2,-54,-26,-2.40,-4.26,7.67
-1547,-307,7492,3,-58,-30,-2.39,-3.50,8.07
-1232,-316,7583,5,-66,-30,-2.34,-2.61,8.48
-810,-327,7774,3,-72,-26,-2.29,-1.59,8.85
-320,-356,8004,-1,-73,-21,-2.29,-0.52,9.16
145,-392,8177,-6,-64,-13,-2.36,0.49,9.36
452,-418,8279,-9,-51,-5,-2.47,1.31,9.46
543,-447,8335,-11,-39,0,-2.62,1.94,9.47
485,-449,8303,-13,-28,1,-2.80,2.37,9.46
347,-439,8179,-14,-20,-3,-2.99,2.66,9.49
209,-420,7996,-13,-14,-7,-3.16,2.84,9.57
129,-408,7793,-9,-11,-11,-3.28,2.98,9.71
126,-421,7648,-3,-9,-14,-3.34,3.09,9.89
222,-422,7611,2,-6,-15,-3.31,3.18,10.09
