aX,aY,aZ,gX,gY,gZ,yaw,pitch,roll
-143,991,8060,-2,1,0,5.91,-1.49,54.78
-159,981,8086,-2,0,1,5.89,-1.50,54.77
-189,963,8116,-2,0,1,5.88,-1.51,54.74
-215,931,8134,-1,-1,2,5.87,-1.50,54.71
-229,884,8136,0,-2,2,5.87,-1.49,54.69
-248,847,8133,0,-2,1,5.87,-1.47,54.66
-263,830,8139,1,-1,1,5.89,-1.47,54.64
-271,819,8150,2,0,1,5.92,-1.47,54.63
-276,816,8150,2,0,0,5.95,-1.48,54.61
-283,820,8163,2,0,0,5.98,-1.49,54.60
-283,831,8170,3,-1,0,6.02,-1.50,54.59
-276,845,8167,3,0,0,6.08,-1.50,54.58
-268,858,8163,3,0,0,6.13,-1.51,54.58
-265,867,8145,3,-2,0,6.18,-1.51,54.57
-259,868,8121,2,-4,0,6.22,-1.46,54.56
-250,848,8099,4,-6,0,6.27,-1.40,54.54
-224,814,8099,7,-7,0,6.35,-1.30,54.53
-205,781,8124,11,-11,1,6.48,-1.17,54.52
-185,746,8135,17,-17,1,6.69,-0.96,54.50
-139,754,8100,22,-22,2,6.97,-0.67,54.47
-81,828,8059,27,-23,3,7.34,-0.34,54.43
-17,946,8035,30,-22,4,7.76,-0.02,54.37
37,1053,8030,31,-21,6,8.22,0.28,54.29
67,1149,8076,31,-25,7,8.67,0.62,54.18
160,1253,8177,31,-27,8,9.13,1.01,54.07
270,1371,8272,30,-24,8,9.57,1.38,53.95
311,1440,8316,23,-22,8,9.94,1.71,53.83
288,1474,8283,8,-37,7,10.13,2.15,53.77
335,1583,8172,-20,-79,6,9.98,3.10,53.81
468,1802,7981,-58,-107,6,9.36,4.52,54.00
585,2053,7773,-98,-105,7,8.23,6.03,54.25
688,2135,7509,-137,-92,7,6.55,7.36,54.52
890,1998,7154,-173,-74,4,4.34,8.48,54.80
1311,1636,6672,-202,-23,-2,1.67,9.07,55.06
1723,1037,6134,-218,53,-14,-1.31,8.70,55.34
1800,276,5807,-224,122,-24,-4.43,7.33,55.66
1580,-499,5901,-216,163,-29,-7.52,5.26,56.05
1145,-1099,6388,-201,171,-26,-10.42,2.94,56.44
663,-1539,7080,-187,146,-19,-13.11,0.83,56.77
228,-1898,7745,-177,107,-13,-15.63,-0.76,56.96
-140,-2195,8207,-171,66,-9,-18.05,-1.79,56.98
-429,-2447,8437,-169,36,-9,-20.41,-2.38,56.85
-647,-2679,8465,-170,13,-10,-22.78,-2.62,56.59
-716,-2873,8265,-173,-5,-10,-25.17,-2.60,56.19
-664,-3054,7828,-178,-13,-10,-27.64,-2.42,55.65
-622,-3283,7260,-178,-3,-7,-30.15,-2.30,55.03
-689,-3602,6753,-172,18,-4,-32.62,-2.44,54.43
-759,-3968,6453,-162,35,0,-34.99,-2.84,53.85
-849,-4270,6427,-152,47,3,-37.19,-3.40,53.32
-941,-4554,6571,-145,51,6,-39.25,-4.05,52.79
-1103,-4885,6711,-140,46,8,-41.23,-4.68,52.19
-1318,-5276,6757,-135,36,8,-43.14,-5.22,51.49
-1461,-5668,6735,-129,21,5,-44.98,-5.59,50.67
-1517,-5974,6617,-124,4,-1,-46.73,-5.74,49.74
-1412,-6240,6272,-118,-13,-7,-48.41,-5.64,48.69
-1236,-6476,5720,-108,-18,-11,-50.01,-5.38,47.63
-1060,-6652,5201,-95,-9,-13,-51.46,-5.15,46.71
-862,-6739,4784,-79,-1,-12,-52.70,-4.98,45.98
-747,-6730,4548,-62,11,-11,-53.71,-4.91,45.51
-753,-6640,4639,-46,20,-7,-54.44,-4.97,45.29
-795,-6482,5016,-37,15,-3,-54.95,-5.09,45.13
-781,-6291,5417,-36,4,-1,-55.35,-5.15,44.91
-760,-6198,5599,-39,-7,1,-55.76,-5.13,44.50
-713,-6269,5480,-43,-10,3,-56.26,-5.08,43.93
-642,-6502,5148,-44,-10,3,-56.85,-5.04,43.27
-576,-6845,4767,-41,-5,1,-57.46,-4.99,42.66
-528,-7149,4486,-34,6,-4,-58.02,-4.98,42.25
-520,-7333,4428,-25,15,-10,-58.46,-4.97,42.15
-556,-7394,4567,-17,16,-13,-58.75,-4.94,42.29
-578,-7400,4746,-7,8,-14,-58.87,-4.86,42.50
-517,-7394,4842,4,-1,-13,-58.82,-4.70,42.76
-443,-7389,4865,16,-5,-11,-58.61,-4.52,43.08
-401,-7356,4902,29,-1,-8,-58.22,-4.38,43.52
-357,-7330,5045,41,5,-6,-57.66,-4.32,44.16
-374,-7319,5242,56,8,-6,-56.89,-4.29,44.99
-441,-7392,5416,77,5,-4,-55.85,-4.28,45.98
-515,-7547,5537,106,2,-2,-54.46,-4.28,47.13
-597,-7677,5640,140,-7,1,-52.62,-4.26,48.42
-615,-7687,5761,172,-25,4,-50.30,-4.14,49.70
-515,-7472,5894,195,-48,8,-47.59,-3.83,50.79
-325,-6982,6028,200,-63,9,-44.73,-3.31,51.64
-83,-6297,6129,185,-65,10,-41.98,-2.70,52.26
163,-5604,6208,162,-56,10,-39.53,-2.11,52.72
303,-4984,6281,137,-35,11,-37.44,-1.70,53.11
346,-4481,6436,117,-1,15,-35.64,-1.67,53.51
264,-4146,6745,108,28,18,-34.01,-2.03,53.97
16,-3990,7152,109,38,19,-32.41,-2.62,54.46
-327,-4016,7604,120,26,22,-30.69,-3.17,54.87
-641,-4151,8028,134,-1,25,-28.80,-3.47,55.11
-807,-4284,8353,144,-35,26,-26.76,-3.37,55.13
-825,-4368,8520,146,-62,24,-24.68,-2.86,55.00
-790,-4381,8456,142,-78,18,-22.68,-2.03,54.83
-720,-4303,8217,133,-81,9,-20.81,-1.07,54.72
-563,-4043,7946,122,-68,-2,-19.10,-0.14,54.74
-353,-3616,7735,110,-47,-12,-17.55,0.59,54.95
-186,-3137,7617,99,-26,-19,-16.11,1.08,55.30
-95,-2715,7583,91,-14,-19,-14.77,1.37,55.68
-25,-2362,7602,86,-12,-13,-13.51,1.57,55.99
67,-2066,7619,81,-12,-6,-12.32,1.76,56.19
418,1132,8119,1,-2,-2,7.97,2.80,58.89
424,1165,8113,1,-3,-1,8.00,2.83,58.90
430,1181,8076,2,-4,-1,8.04,2.88,58.91
442,1194,8019,2,-5,0,8.08,2.94,58.92
456,1205,7972,2,-4,0,8.12,2.99,58.91
473,1193,7947,2,-1,0,8.17,3.02,58.90
476,1173,7951,2,0,0,8.20,3.02,58.90
455,1141,7977,2,1,0,8.24,3.00,58.89
437,1106,8034,2,1,-1,8.26,2.98,58.89
418,1072,8060,2,-1,-1,8.28,2.98,58.89
401,1040,8045,3,-4,-2,8.31,3.00,58.91
404,1026,8011,4,-6,-3,8.36,3.06,58.96
425,1040,7963,6,-6,-4,8.44,3.14,59.01
448,1057,7894,7,-4,-4,8.54,3.20,59.07
455,1097,7818,7,-4,-4,8.65,3.24,59.12
465,1147,7761,6,-2,-4,8.75,3.26,59.16
479,1195,7721,5,0,-3,8.84,3.27,59.20
486,1214,7732,4,1,-3,8.92,3.25,59.23
477,1197,7777,3,0,-3,8.97,3.24,59.25
458,1167,7843,2,0,-3,8.99,3.23,59.28
448,1146,7885,0,1,-4,9.00,3.21,59.31
442,1137,7908,-4,4,-6,8.96,3.14,59.38
423,1146,7920,-10,7,-8,8.86,3.04,59.47
389,1164,7911,-20,8,-10,8.63,2.90,59.61
352,1166,7885,-32,5,-13,8.23,2.78,59.79
322,1133,7855,-45,1,-15,7.66,2.71,60.01
320,1050,7788,-55,-3,-16,6.94,2.70,60.28
343,949,7694,-61,-5,-18,6.11,2.73,60.57
397,850,7624,-64,1,-21,5.23,2.71,60.90
455,755,7570,-67,12,-24,4.33,2.56,61.25
475,692,7562,-72,26,-25,3.35,2.23,61.61
424,650,7634,-80,36,-26,2.28,1.74,61.96
361,601,7791,-92,38,-26,1.07,1.19,62.32
264,548,7985,-106,29,-26,-0.33,0.73,62.67
121,469,8217,-122,22,-24,-1.94,0.39,63.00
-6,364,8460,-139,12,-22,-3.79,0.17,63.28
-15,184,8633,-156,0,-19,-5.87,0.12,63.48
49,-85,8654,-169,-3,-16,-8.16,0.19,63.60
35,-441,8508,-174,3,-16,-10.56,0.21,63.66
-70,-902,8267,-170,9,-15,-12.97,0.12,63.69
-182,-1342,8078,-160,12,-15,-15.28,-0.01,63.70
-251,-1693,8000,-150,6,-12,-17.42,-0.10,63.65
-269,-1997,7989,-143,-4,-8,-19.45,-0.06,63.49
-279,-2223,8025,-142,-15,-3,-21.42,0.09,63.21
-257,-2367,8010,-149,-21,0,-23.45,0.33,62.78
-214,-2443,7885,-164,-18,3,-25.63,0.55,62.24
-157,-2596,7675,-182,-7,5,-28.06,0.63,61.61
-88,-2872,7431,-197,12,7,-30.74,0.48,60.94
-71,-3245,7194,-207,33,6,-33.60,0.10,60.26
-113,-3709,6944,-209,48,3,-36.53,-0.45,59.63
-223,-4187,6677,-199,56,-1,-39.39,-1.07,59.09
-388,-4640,6488,-181,53,-5,-42.03,-1.66,58.60
-505,-5001,6357,-160,37,-5,-44.37,-2.08,58.07
-594,-5275,6254,-142,16,0,-46.42,-2.32,57.33
-589,-5445,6181,-130,-1,7,-48.25,-2.43,56.34
-543,-5586,6048,-124,-13,11,-49.96,-2.46,55.12
-549,-5845,5811,-117,-19,14,-51.59,-2.46,53.73
-592,-6191,5554,-105,-19,14,-53.10,-2.49,52.31
-594,-6498,5359,-92,-14,11,-54.45,-2.52,51.00
-552,-6734,5268,-82,-16,6,-55.62,-2.50,49.84
-478,-6864,5126,-77,-24,1,-56.70,-2.37,48.69
-357,-6880,4857,-73,-28,-3,-57.72,-2.14,47.55
-302,-6942,4473,-67,-29,-2,-58.71,-1.90,46.39
-137,-6937,4061,-60,-15,-3,-59.62,-1.73,45.41
2,-6929,3811,-54,-2,-1,-60.43,-1.65,44.65
56,-6961,3773,-46,-1,3,-61.13,-1.65,43.99
5,-7004,3915,-41,-7,8,-61.70,-1.69,43.30
-23,-7107,4087,-39,-11,11,-62.20,-1.76,42.53
-34,-7314,4236,-38,-15,10,-62.70,-1.78,41.72
-30,-7551,4271,-34,-19,7,-63.16,-1.76,40.93
40,-7765,4174,-28,-19,3,-63.56,-1.68,40.22
113,-7846,4041,-23,-9,0,-63.90,-1.59,39.72
142,-7894,3972,-19,3,-2,-64.18,-1.55,39.47
135,-7908,3969,-15,11,-3,-64.40,-1.55,39.39
105,-7905,4074,-10,18,-5,-64.54,-1.59,39.54
112,-7916,4198,-5,16,-6,-64.59,-1.61,39.78
131,-7950,4280,0,14,-5,-64.57,-1.61,40.07
97,-7980,4374,6,14,-5,-64.48,-1.62,40.44
102,-8005,4467,13,5,-6,-64.28,-1.60,40.84
177,-8066,4494,20,-5,-6,-63.98,-1.48,41.22
236,-8149,4466,31,-6,-6,-63.56,-1.35,41.67
279,-8224,4450,44,-5,-5,-62.97,-1.23,42.28
266,-8209,4453,59,-6,-6,-62.18,-1.10,43.08
213,-8109,4452,76,-9,-6,-61.17,-0.95,44.03
121,-7974,4575,97,-4,-5,-59.87,-0.85,45.21
23,-7818,4908,114,0,-2,-58.27,-0.82,46.58
-104,-7604,5398,126,-4,0,-56.46,-0.82,47.97
-241,-7357,5789,129,-19,2,-54.54,-0.75,49.18
-305,-7126,5950,128,-37,1,-52.66,-0.52,50.06
-261,-6861,5956,123,-46,-2,-50.86,-0.15,50.72
-135,-6518,5814,110,-50,-6,-49.22,0.33,51.25
23,-6170,5493,93,-55,-10,-47.83,0.94,51.63
165,-5907,5030,80,-45,-13,-46.70,1.55,51.94
349,-5767,4576,77,-17,-11,-45.69,1.92,52.38
558,-5711,4324,85,15,-7,-44.60,1.97,53.06
641,-5702,4366,101,38,-2,-43.29,1.70,53.97
503,-5614,4722,117,43,5,-41.73,1.24,54.94
224,-5398,5383,123,34,13,-39.99,0.71,55.75
-19,-5091,6140,117,15,18,-38.23,0.28,56.32
709,1009,8129,3,-5,2,7.13,4.55,63.38
720,997,8079,2,-3,1,7.17,4.60,63.35
734,987,8022,0,-1,0,7.18,4.63,63.35
739,985,7985,-1,1,-1,7.17,4.62,63.35
738,996,7987,-2,3,-1,7.15,4.57,63.36
721,1021,8016,-3,4,-1,7.12,4.51,63.37
698,1042,8049,-3,3,-1,7.09,4.46,63.37
667,1043,8096,-2,2,-1,7.07,4.41,63.39
637,1032,8135,-1,0,-1,7.05,4.39,63.39
616,1024,8171,0,-1,-1,7.05,4.39,63.39
610,1027,8191,1,-2,-1,7.07,4.39,63.40
596,1034,8213,3,-3,-1,7.12,4.42,63.41
583,1034,8213,4,-5,0,7.18,4.48,63.41
583,1031,8186,5,-7,0,7.25,4.56,63.42
595,1028,8133,5,-8,0,7.32,4.66,63.42
607,1018,8042,3,-8,-1,7.38,4.76,63.43
630,1004,7969,1,-6,-2,7.41,4.85,63.46
668,1022,7939,-2,-2,-2,7.41,4.89,63.48
711,1052,7937,-6,0,-3,7.35,4.89,63.53
739,1076,7947,-11,-1,-4,7.24,4.89,63.58
772,1076,7917,-17,-2,-3,7.05,4.92,63.64
807,1052,7864,-23,0,-3,6.77,4.92,63.69
822,997,7791,-29,3,-5,6.39,4.90,63.77
799,935,7749,-37,2,-6,5.92,4.86,63.87
760,854,7708,-47,-3,-8,5.31,4.87,64.00
726,739,7654,-58,-7,-10,4.54,4.94,64.18
723,602,7592,-70,-8,-12,3.61,5.04,64.38
754,462,7573,-82,-4,-14,2.50,5.10,64.62
810,314,7628,-93,3,-17,1.25,5.08,64.87
877,192,7775,-105,13,-19,-0.16,4.95,65.14
885,118,7986,-116,20,-20,-1.72,4.70,65.42
857,76,8172,-129,19,-19,-3.43,4.44,65.68
786,54,8317,-140,17,-17,-5.29,4.21,65.91
681,5,8337,-151,9,-15,-7.31,4.06,66.07
603,-127,8195,-158,2,-12,-9.43,4.02,66.17
569,-344,7974,-158,3,-10,-11.60,4.00,66.18
545,-656,7807,-155,9,-5,-13.74,3.92,66.14
494,-1026,7726,-150,16,0,-15.84,3.72,66.01
412,-1481,7725,-145,19,3,-17.88,3.44,65.82
348,-1928,7800,-140,21,2,-19.87,3.12,65.62
331,-2342,7911,-138,20,0,-21.81,2.83,65.43
288,-2656,7979,-139,17,-2,-23.75,2.59,65.24
211,-2894,7904,-141,10,-3,-25.70,2.43,64.99
151,-3091,7696,-142,5,-2,-27.67,2.34,64.69
155,-3269,7464,-142,6,0,-29.64,2.25,64.32
222,-3461,7233,-142,8,3,-31.62,2.14,63.89
273,-3669,6999,-142,12,5,-33.60,1.98,63.41
246,-3934,6773,-143,20,7,-35.59,1.72,62.91
185,-4262,6608,-144,29,7,-37.61,1.34,62.42
108,-4559,6513,-144,37,5,-39.63,0.88,61.98
-4,-4810,6470,-143,39,2,-41.63,0.42,61.59
-147,-4993,6445,-141,33,2,-43.59,-0.00,61.14
-266,-5139,6379,-136,23,4,-45.48,-0.33,60.57
-336,-5325,6232,-129,8,9,-47.27,-0.56,59.77
-398,-5555,5980,-119,-6,15,-48.96,-0.71,58.71
-417,-5756,5672,-109,-14,19,-50.53,-0.82,57.46
-357,-5847,5382,-104,-13,20,-52.00,-0.94,56.15
-286,-5926,5077,-105,-11,20,-53.46,-1.08,54.81
-237,-6041,4717,-107,-5,19,-54.96,-1.25,53.43
-218,-6164,4308,-109,7,17,-56.51,-1.50,52.13
-175,-6283,3785,-110,17,14,-58.11,-1.78,50.88
-180,-6428,3250,-106,33,12,-59.71,-2.14,49.77
-240,-6650,2941,-98,49,14,-61.23,-2.63,48.90
-381,-6944,2929,-87,54,17,-62.58,-3.20,48.22
-590,-7322,3120,-75,42,19,-63.73,-3.75,47.53
-744,-7778,3370,-63,23,16,-64.69,-4.17,46.72
-784,-8195,3547,-52,6,10,-65.46,-4.40,45.85
-727,-8536,3602,-39,-6,3,-66.06,-4.45,44.98
-711,-8687,3620,-26,-8,-1,-66.48,-4.41,44.33
-647,-8697,3664,-14,-7,-3,-66.70,-4.34,43.96
-548,-8654,3748,-4,-4,-3,-66.77,-4.26,43.82
-446,-8602,3885,6,3,-1,-66.69,-4.23,43.98
-304,-8582,4004,14,7,1,-66.49,-4.26,44.34
-194,-8632,4059,25,12,2,-66.16,-4.30,44.93
-159,-8730,4167,42,16,1,-65.62,-4.37,45.86
-157,-8817,4441,61,18,-1,-64.81,-4.43,47.15
-186,-8817,4839,83,12,-5,-63.67,-4.44,48.74
-247,-8738,5204,110,-1,-9,-62.15,-4.34,50.48
-377,-8625,5562,147,-20,-11,-60.13,-4.10,52.28
-445,-8391,5933,183,-48,-9,-57.56,-3.71,53.93
-314,-7986,6186,204,-77,-8,-54.61,-3.06,55.16
-100,-7385,6224,207,-90,-7,-51.57,-2.21,56.04
95,-6649,6129,194,-82,-8,-48.69,-1.33,56.75
308,-5920,6015,172,-58,-8,-46.11,-0.58,57.46
473,-5365,6034,154,-26,-7,-43.81,-0.13,58.27
486,-5044,6251,145,-3,-4,-41.68,0.03,59.14
370,-4890,6602,144,1,0,-39.58,0.03,59.95
208,-4876,6934,147,-10,6,-37.45,0.06,60.56
41,-4925,7129,150,-29,9,-35.32,0.22,60.91
-88,-4962,7183,151,-43,8,-33.20,0.59,61.10
-152,-4943,7125,146,-50,4,-31.16,1.09,61.23
-135,-4819,7000,136,-47,-3,-29.25,1.65,61.41
-31,-4546,6873,119,-33,-10,-27.55,2.15,61.69
68,-4192,6787,99,-13,-15,-26.09,2.45,62.08
159,-3856,6829,82,7,-17,-24.86,2.53,62.54
177,-3582,6988,71,19,-14,-23.80,2.39,63.01
107,-3430,7138,68,22,-10,-22.81,2.14,63.42
7,-3403,7230,73,17,-5,-21.80,1.90,63.74
-102,-3443,7293,86,8,-1,-20.67,1.73,63.98
596,832,8124,1,-1,-1,5.45,4.20,65.85
596,821,8141,2,-4,-1,5.48,4.23,65.85
606,825,8137,4,-5,-1,5.55,4.29,65.86
623,838,8129,5,-5,-1,5.63,4.36,65.87
629,873,8112,5,-5,-1,5.72,4.43,65.89
648,915,8087,5,-5,-1,5.80,4.49,65.91
672,967,8065,4,-4,-1,5.88,4.55,65.92
703,1019,8038,3,-3,-1,5.95,4.59,65.92
721,1067,8022,2,-2,0,6.01,4.62,65.93
732,1097,8024,1,-2,1,6.06,4.66,65.92
730,1109,8019,0,-3,1,6.08,4.69,65.90
731,1099,8016,-1,-3,1,6.09,4.73,65.88
747,1095,8023,-2,-3,1,6.09,4.77,65.87
763,1113,8033,-3,-2,1,6.07,4.80,65.86
766,1127,8036,-5,-1,2,6.04,4.82,65.84
757,1115,8063,-7,-1,3,5.96,4.83,65.80
746,1076,8088,-9,-1,4,5.86,4.85,65.75
708,1012,8094,-11,-3,4,5.73,4.88,65.70
659,938,8050,-15,-6,4,5.53,4.94,65.65
640,858,7981,-20,-7,3,5.27,5.03,65.62
659,797,7912,-26,-5,1,4.93,5.11,65.61
699,746,7862,-34,-1,-1,4.49,5.14,65.63
731,676,7839,-44,5,-3,3.92,5.08,65.69
773,599,7861,-55,11,-4,3.20,4.94,65.75
791,519,7914,-68,18,-5,2.30,4.72,65.82
747,441,7988,-82,23,-8,1.22,4.41,65.92
677,360,8041,-96,26,-11,-0.04,4.05,66.07
597,246,8055,-108,28,-14,-1.48,3.66,66.24
493,107,8055,-116,29,-16,-3.06,3.23,66.45
388,-67,8034,-120,27,-16,-4.71,2.84,66.65
310,-255,8018,-119,22,-15,-6.37,2.51,66.84
276,-460,8008,-115,19,-13,-7.97,2.23,66.99
234,-677,8013,-110,16,-11,-9.50,2.01,67.10
221,-883,7993,-107,11,-7,-10.99,1.84,67.14
207,-1071,7943,-107,5,-5,-12.48,1.76,67.12
194,-1272,7880,-111,2,-2,-14.00,1.72,67.04
218,-1499,7789,-118,3,-1,-15.62,1.68,66.91
216,-1770,7703,-128,10,-1,-17.38,1.56,66.76
200,-2105,7608,-140,18,-2,-19.30,1.34,66.62
210,-2439,7440,-152,30,-7,-21.41,1.01,66.53
182,-2751,7241,-160,46,-15,-23.64,0.53,66.57
106,-3053,7089,-163,57,-21,-25.95,-0.05,66.76
-19,-3328,7064,-158,59,-23,-28.21,-0.66,67.01
-205,-3566,7242,-145,51,-20,-30.29,-1.21,67.25
-318,-3718,7513,-128,29,-13,-32.12,-1.56,67.31
-328,-3831,7667,-113,-2,-5,-33.70,-1.59,67.08
-363,-3997,7617,-102,-28,4,-35.10,-1.38,66.52
-364,-4184,7377,-94,-42,11,-36.40,-1.03,65.68
-267,-4385,7002,-94,-43,14,-37.71,-0.67,64.72
-155,-4596,6537,-100,-32,13,-39.09,-0.40,63.77
-27,-4819,6069,-111,-11,8,-40.64,-0.30,62.96
107,-4993,5666,-122,15,0,-42.37,-0.39,62.38
114,-5101,5442,-129,36,-7,-44.20,-0.64,62.07
56,-5160,5362,-131,43,-9,-46.05,-0.97,61.89
-51,-5166,5414,-127,41,-7,-47.84,-1.31,61.69
-109,-5177,5456,-121,26,-1,-49.51,-1.58,61.30
-157,-5311,5367,-114,5,7,-51.10,-1.73,60.55
-241,-5527,5214,-104,-11,15,-52.56,-1.84,59.43
-259,-5768,5044,-96,-19,20,-53.91,-1.93,58.08
-247,-5976,4862,-94,-19,22,-55.22,-2.03,56.64
-229,-6166,4631,-94,-15,22,-56.53,-2.16,55.16
-219,-6377,4462,-95,-2,20,-57.87,-2.37,53.77
-264,-6612,4402,-94,10,19,-59.20,-2.65,52.54
-347,-6914,4391,-89,14,18,-60.46,-2.98,51.41
-466,-7252,4381,-76,8,16,-61.58,-3.27,50.29
-570,-7570,4324,-58,-2,16,-62.45,-3.49,49.22
-634,-7800,4297,-38,-9,16,-63.04,-3.66,48.25
-668,-7947,4356,-26,-15,16,-63.41,-3.80,47.41
-689,-8083,4435,-20,-19,17,-63.67,-3.91,46.57
-690,-8249,4542,-18,-18,18,-63.86,-4.03,45.80
-668,-8432,4561,-15,-21,18,-64.03,-4.14,45.02
-650,-8596,4592,-8,-13,15,-64.12,-4.26,44.43
-616,-8703,4674,0,-7,10,-64.11,-4.35,44.14
-609,-8799,4769,12,-7,3,-63.94,-4.35,44.16
-577,-8883,4796,28,-12,-4,-63.56,-4.26,44.45
-481,-8936,4691,50,-18,-12,-62.93,-4.02,45.02
-395,-8901,4595,76,-19,-18,-61.96,-3.67,45.98
-258,-8685,4579,100,-22,-21,-60.63,-3.25,47.25
-48,-8331,4620,117,-24,-20,-59.02,-2.80,48.68
141,-7876,4686,126,-22,-16,-57.25,-2.38,50.11
252,-7371,4803,130,-16,-11,-55.39,-2.06,51.48
321,-6883,4981,128,-9,-5,-53.53,-1.86,52.76
331,-6513,5195,125,-2,-1,-51.70,-1.78,53.93
278,-6289,5448,126,2,1,-49.88,-1.78,55.01
166,-6176,5726,134,1,3,-47.98,-1.82,56.04
-7,-6134,6020,144,-6,5,-45.94,-1.84,56.97
-192,-6137,6295,155,-20,8,-43.76,-1.78,57.71
-292,-6107,6457,161,-34,9,-41.49,-1.57,58.25
-264,-5965,6455,159,-41,6,-39.24,-1.23,58.66
-164,-5706,6411,151,-31,2,-37.09,-0.88,59.08
-130,-5379,6442,139,-17,-1,-35.09,-0.65,59.58
-178,-5051,6534,123,-7,-2,-33.28,-0.54,60.08
-207,-4752,6670,108,0,-2,-31.69,-0.53,60.52
-268,-4519,6781,96,2,-2,-30.28,-0.56,60.92
-347,-4415,6892,90,4,-1,-29.00,-0.62,61.27
-451,-4381,7055,93,7,0,-27.71,-0.74,61.60
-615,-4370,7281,101,2,2,-26.34,-0.84,61.88
-788,-4354,7488,109,-15,4,-24.86,-0.80,62.07
-869,-4309,7575,113,-36,6,-23.32,-0.51,62.12
1066,682,8048,2,-4,1,5.12,7.35,65.93
1075,660,7995,2,-2,0,5.15,7.38,65.92
1070,654,7962,1,-1,-1,5.18,7.39,65.93
1062,666,7956,1,0,-1,5.20,7.40,65.94
1064,685,7974,2,0,-1,5.22,7.39,65.95
1056,701,8004,3,-2,-1,5.27,7.40,65.95
1047,711,8011,4,-3,0,5.33,7.43,65.96
1037,703,8013,5,-4,0,5.41,7.48,65.94
1024,681,8005,7,-6,0,5.50,7.54,65.94
1026,657,7983,8,-7,-1,5.61,7.63,65.94
1047,643,7973,9,-6,-2,5.73,7.70,65.95
1062,653,7965,10,-4,-3,5.87,7.76,65.98
1060,680,7944,10,-4,-3,6.02,7.81,66.01
1075,725,7916,9,-3,-3,6.17,7.84,66.05
1090,781,7904,8,-2,-3,6.29,7.87,66.08
1082,823,7887,7,-4,-2,6.40,7.91,66.09
1077,852,7875,8,-6,-2,6.52,7.96,66.12
1098,877,7867,10,-8,-1,6.66,8.06,66.15
1117,900,7853,12,-8,-1,6.83,8.16,66.16
1123,934,7835,13,-10,0,7.02,8.29,66.15
1138,961,7812,13,-12,1,7.21,8.44,66.15
1152,992,7812,12,-14,1,7.40,8.62,66.14
1176,1028,7827,13,-15,1,7.58,8.82,66.14
1196,1073,7802,13,-15,1,7.78,9.03,66.14
1199,1121,7770,10,-13,1,7.94,9.22,66.15
1195,1196,7782,4,-12,1,8.04,9.38,66.16
1200,1270,7813,-4,-12,1,8.04,9.52,66.16
1220,1271,7807,-12,-11,1,7.93,9.68,66.18
1216,1175,7794,-19,-13,1,7.69,9.84,66.20
1194,1016,7835,-21,-20,0,7.40,10.08,66.25
1183,851,7856,-17,-31,-2,7.13,10.45,66.35
1206,754,7784,-17,-38,-4,6.89,10.94,66.50
1263,728,7622,-26,-38,-5,6.59,11.46,66.67
1344,779,7414,-42,-34,-7,6.09,11.93,66.87
1523,826,7260,-61,-21,-7,5.35,12.28,67.08
1668,921,7140,-83,0,-8,4.32,12.37,67.27
1750,987,7047,-108,20,-8,2.98,12.17,67.43
1728,983,7018,-134,36,-7,1.25,11.74,67.57
1635,861,7041,-157,48,-6,-0.79,11.10,67.67
1533,648,7061,-175,55,-3,-3.13,10.35,67.73
1443,350,7036,-187,58,0,-5.68,9.55,67.74
1360,-24,7016,-189,61,1,-8.30,8.69,67.72
1242,-435,7119,-183,65,3,-10.88,7.80,67.65
1063,-795,7348,-174,61,6,-13.33,6.91,67.56
873,-1099,7553,-170,49,10,-15.70,6.13,67.38
723,-1404,7673,-171,42,15,-18.07,5.46,67.09
570,-1718,7758,-172,42,17,-20.46,4.80,66.74
423,-2066,7796,-174,42,17,-22.86,4.12,66.35
290,-2435,7817,-173,44,15,-25.28,3.43,65.96
182,-2809,7847,-169,45,14,-27.63,2.74,65.59
107,-3198,7829,-164,41,14,-29.91,2.08,65.19
10,-3568,7715,-159,32,16,-32.14,1.52,64.70
-52,-3956,7452,-151,21,17,-34.29,1.07,64.08
-79,-4309,7073,-142,15,18,-36.34,0.72,63.38
-112,-4616,6733,-133,15,19,-38.27,0.37,62.64
-84,-4889,6525,-126,15,20,-40.09,0.02,61.89
-27,-5130,6402,-122,15,21,-41.83,-0.34,61.12
10,-5384,6317,-120,12,21,-43.52,-0.67,60.26
44,-5605,6219,-119,10,20,-45.19,-0.96,59.37
79,-5747,6106,-120,14,18,-46.85,-1.27,58.47
81,-5895,5939,-122,14,16,-48.54,-1.57,57.55
37,-6120,5675,-121,11,15,-50.25,-1.83,56.55
-28,-6355,5346,-114,10,14,-51.91,-2.08,55.51
-84,-6568,5045,-102,10,13,-53.43,-2.32,54.47
-112,-6711,4894,-88,12,12,-54.75,-2.54,53.57
-156,-6847,4931,-79,14,13,-55.89,-2.80,52.75
-275,-6968,5124,-72,13,14,-56.90,-3.08,51.99
-372,-7084,5288,-69,2,14,-57.80,-3.31,51.13
-387,-7245,5237,-66,-8,12,-58.68,-3.42,50.12
-368,-7426,5012,-60,-9,9,-59.53,-3.47,49.11
-333,-7618,4771,-52,-9,6,-60.29,-3.48,48.18
-291,-7732,4578,-44,-7,2,-60.95,-3.45,47.41
-408,-7876,4704,-33,-11,2,-61.46,-3.41,46.77
-552,-8036,4959,-7,-51,4,-61.55,-3.22,46.02
-360,-7983,4644,6,-48,4,-61.44,-2.92,45.30
-234,-7892,4517,2,-17,3,-61.39,-2.77,44.97
-221,-7807,4694,-3,-13,0,-61.37,-2.69,44.81
-106,-7717,4672,-5,-19,-2,-61.37,-2.54,44.57
45,-7602,4507,-7,-10,-3,-61.44,-2.40,44.38
123,-7496,4445,-6,-3,-3,-61.52,-2.29,44.32
167,-7428,4377,-1,2,-2,-61.53,-2.25,44.36
219,-7410,4281,6,9,-2,-61.46,-2.24,44.56
227,-7447,4254,13,13,-4,-61.30,-2.26,44.94
78,-7560,4314,26,11,-5,-60.99,-2.27,45.49
-107,-7770,4454,48,5,-3,-60.40,-2.29,46.17
-301,-8082,4755,80,-1,-2,-59.39,-2.29,47.13
-466,-8325,5309,112,-14,-2,-57.88,-2.23,48.29
-509,-8249,5889,127,-40,-1,-56.03,-1.99,49.32
-412,-7924,6116,119,-60,0,-54.20,-1.55,49.99
-238,-7520,5974,100,-62,-1,-52.65,-1.01,50.32
-22,-7167,5643,79,-46,-4,-51.44,-0.52,50.59
172,-6973,5234,67,-22,-9,-50.49,-0.16,50.99
277,-6960,4870,72,-3,-14,-49.57,0.07,51.64
286,-7019,4658,93,8,-17,-48.44,0.20,52.56
255,-7017,4721,120,10,-14,-46.94,0.26,53.67
196,-6800,5154,141,4,-10,-45.06,0.30,54.79
123,-6302,5840,143,-9,-5,-42.99,0.40,55.75
100,-5650,6518,126,-20,-2,-41.02,0.60,56.44
124,-5038,6902,98,-30,1,-39.39,0.88,56.84
1191,74,8187,4,-2,-1,-0.16,8.58,65.18
1187,110,8197,4,-3,0,-0.09,8.61,65.18
1190,133,8190,3,-3,1,-0.03,8.65,65.17
1196,136,8177,2,-2,0,0.02,8.67,65.16
1194,127,8150,1,-1,-1,0.05,8.67,65.17
1206,122,8124,0,0,-2,0.08,8.67,65.19
1227,118,8101,1,1,-3,0.10,8.65,65.21
1234,116,8082,1,2,-3,0.13,8.62,65.24
1238,110,8073,2,2,-2,0.18,8.59,65.27
1239,104,8078,4,1,-2,0.23,8.57,65.29
1235,104,8087,4,0,-2,0.31,8.56,65.31
1231,104,8103,4,-1,-2,0.38,8.56,65.32
1228,101,8113,2,-1,-1,0.43,8.57,65.34
1224,90,8109,0,-1,-1,0.44,8.57,65.35
1199,69,8091,-4,-1,-1,0.41,8.58,65.36
1175,15,8065,-8,-2,-1,0.32,8.59,65.37
1145,-44,8019,-11,-3,-2,0.17,8.60,65.40
1108,-110,7955,-15,-5,-4,-0.03,8.65,65.44
1136,-156,7885,-19,-5,-5,-0.27,8.72,65.50
1186,-186,7820,-24,-2,-6,-0.58,8.76,65.59
1212,-212,7789,-32,1,-7,-1.00,8.75,65.69
1238,-236,7755,-43,5,-8,-1.55,8.69,65.79
1269,-276,7712,-58,9,-9,-2.28,8.58,65.91
1270,-327,7664,-75,15,-11,-3.24,8.40,66.07
1248,-363,7620,-94,23,-14,-4.45,8.13,66.25
1215,-429,7622,-113,30,-16,-5.91,7.75,66.45
1174,-535,7603,-132,35,-18,-7.64,7.31,66.68
1140,-704,7471,-151,36,-19,-9.63,6.85,66.90
1078,-925,7194,-165,40,-19,-11.86,6.37,67.12
1019,-1253,6826,-169,48,-20,-14.20,5.81,67.32
927,-1673,6579,-161,59,-21,-16.48,5.14,67.57
803,-2098,6624,-145,66,-20,-18.58,4.35,67.86
686,-2455,6929,-131,59,-16,-20.46,3.59,68.11
542,-2757,7308,-121,41,-10,-22.18,3.03,68.24
360,-3000,7635,-115,22,-4,-23.79,2.69,68.22
223,-3183,7802,-114,8,-2,-25.36,2.52,68.07
125,-3337,7796,-117,1,-4,-26.98,2.48,67.86
57,-3488,7632,-122,1,-5,-28.65,2.47,67.62
48,-3665,7389,-124,8,-5,-30.38,2.40,67.39
39,-3854,7151,-122,18,-5,-32.09,2.21,67.21
1,-4060,6888,-115,22,-4,-33.75,1.97,67.05
-62,-4262,6700,-103,26,-4,-35.25,1.68,66.93
-116,-4422,6687,-90,27,-2,-36.56,1.36,66.85
-140,-4544,6751,-81,15,0,-37.69,1.12,66.71
-180,-4664,6758,-74,1,3,-38.72,1.02,66.42
-164,-4749,6680,-72,-7,6,-39.72,0.99,65.99
-66,-4817,6547,-76,-6,7,-40.74,0.99,65.50
11,-4882,6429,-82,1,7,-41.84,0.93,65.04
81,-4972,6316,-89,7,6,-43.04,0.80,64.58
104,-5089,6181,-94,11,5,-44.32,0.65,64.15
105,-5217,6007,-95,14,4,-45.64,0.47,63.72
69,-5343,5833,-92,16,4,-46.94,0.27,63.30
22,-5471,5721,-86,17,4,-48.15,0.05,62.91
-41,-5553,5716,-80,19,6,-49.26,-0.20,62.54
-90,-5627,5785,-78,15,9,-50.31,-0.45,62.13
-128,-5745,5833,-78,7,11,-51.35,-0.66,61.57
-144,-5931,5765,-78,-1,12,-52.40,-0.82,60.84
-148,-6161,5594,-75,-3,11,-53.44,-0.93,60.05
-115,-6347,5405,-70,0,9,-54.43,-1.04,59.30
-92,-6443,5253,-66,4,6,-55.36,-1.15,58.64
-92,-6485,5168,-64,7,6,-56.23,-1.27,58.08
-112,-6566,5140,-61,4,8,-57.06,-1.40,57.48
-107,-6698,5092,-56,1,11,-57.83,-1.53,56.81
-115,-6833,5037,-51,-2,11,-58.54,-1.66,56.09
-116,-6955,4973,-47,-6,11,-59.18,-1.75,55.35
-109,-7028,4903,-43,-9,10,-59.76,-1.81,54.60
-97,-7084,4821,-41,-10,10,-60.30,-1.87,53.84
-75,-7170,4745,-37,-10,12,-60.80,-1.93,53.08
-61,-7283,4691,-34,-7,13,-61.27,-2.02,52.36
-63,-7436,4676,-32,-5,13,-61.69,-2.14,51.71
-64,-7600,4692,-29,-2,12,-62.07,-2.26,51.13
-92,-7695,4745,-27,-2,10,-62.42,-2.38,50.62
-68,-7765,4732,-25,-5,8,-62.74,-2.44,50.13
-53,-7852,4663,-21,-6,6,-63.01,-2.48,49.66
-56,-7939,4586,-14,-6,6,-63.21,-2.49,49.29
-76,-8029,4512,-5,-7,4,-63.30,-2.50,49.01
-109,-8088,4520,6,-11,3,-63.24,-2.47,48.87
-96,-8139,4559,16,-17,1,-63.01,-2.38,48.82
-53,-8185,4553,26,-25,-1,-62.63,-2.22,48.83
37,-8237,4455,36,-28,-3,-62.15,-2.00,48.90
146,-8273,4306,47,-23,-5,-61.55,-1.74,49.18
154,-8240,4319,60,-13,-8,-60.77,-1.53,49.77
163,-8134,4519,72,-10,-10,-59.79,-1.32,50.64
115,-7949,4884,82,-12,-9,-58.62,-1.12,51.59
121,-7626,5332,83,-20,-5,-57.35,-0.91,52.44
211,-7298,5538,73,-31,-1,-56.17,-0.65,52.95
283,-7126,5440,63,-27,2,-55.19,-0.42,53.26
319,-7176,5217,62,-12,1,-54.31,-0.29,53.63
279,-7353,5043,73,1,-3,-53.37,-0.24,54.25
172,-7538,4994,92,1,-7,-52.21,-0.19,55.10
87,-7651,5016,113,-8,-9,-50.76,-0.06,56.00
6,-7662,5183,133,-18,-10,-49.01,0.17,56.91
-54,-7490,5485,146,-32,-11,-47.02,0.52,57.74
21,-7096,5840,151,-40,-13,-44.90,1.01,58.48
79,-6536,6219,145,-38,-14,-42.79,1.53,59.19
153,-5948,6519,130,-38,-12,-40.83,2.03,59.78
227,-5451,6624,114,-38,-11,-39.09,2.53,60.23
312,-5169,6564,104,-37,-11,-37.57,3.04,60.58
398,-5021,6474,102,-33,-11,-36.13,3.50,60.92
1226,533,7816,2,1,0,3.61,8.16,68.13
1239,534,7797,1,3,0,3.64,8.13,68.12
1235,539,7802,1,3,0,3.67,8.09,68.11
1233,545,7820,2,3,-1,3.70,8.05,68.10
1220,559,7854,2,4,-1,3.74,8.00,68.11
1208,570,7886,3,4,-1,3.79,7.94,68.11
1199,574,7909,4,4,-1,3.86,7.88,68.11
1193,572,7924,4,4,0,3.93,7.82,68.10
1186,560,7930,4,5,0,4.00,7.75,68.09
1183,555,7953,4,7,-1,4.06,7.66,68.07
1171,549,7985,3,8,-1,4.11,7.55,68.06
1137,530,8011,3,5,-1,4.16,7.45,68.05
1107,508,8018,5,2,0,4.22,7.40,68.04
1091,486,8002,7,2,0,4.30,7.37,68.02
1075,458,7961,8,4,0,4.40,7.32,68.01
1058,447,7913,7,6,-1,4.50,7.23,67.99
1044,467,7887,6,10,-2,4.59,7.10,67.99
1024,482,7861,5,12,-3,4.66,6.94,68.00
1019,497,7872,5,14,-3,4.73,6.74,68.01
1012,506,7888,4,17,-3,4.79,6.51,68.02
989,508,7931,3,18,-2,4.84,6.26,68.02
986,539,8005,1,21,-3,4.86,5.97,68.01
949,576,8083,-4,23,-3,4.83,5.64,68.01
887,592,8151,-10,24,-4,4.72,5.30,68.03
837,626,8166,-17,24,-5,4.52,4.96,68.06
796,647,8111,-27,25,-7,4.19,4.60,68.13
747,696,7997,-37,26,-9,3.74,4.22,68.22
716,753,7842,-49,30,-11,3.13,3.81,68.36
697,781,7672,-63,36,-13,2.34,3.32,68.51
673,772,7557,-77,44,-14,1.37,2.74,68.69
604,725,7544,-90,51,-14,0.20,2.05,68.87
499,631,7673,-100,55,-12,-1.13,1.29,69.04
340,473,7901,-106,54,-9,-2.56,0.52,69.17
157,241,8127,-110,46,-5,-4.08,-0.18,69.25
-20,-24,8247,-112,35,-2,-5.62,-0.72,69.28
-149,-306,8237,-112,27,-2,-7.19,-1.14,69.28
-237,-586,8180,-112,27,-4,-8.76,-1.52,69.29
-323,-819,8117,-112,28,-5,-10.33,-1.93,69.31
-403,-1024,8028,-113,26,-5,-11.91,-2.31,69.33
-443,-1200,7954,-112,28,-4,-13.47,-2.69,69.34
-510,-1405,7944,-110,30,-2,-15.01,-3.11,69.32
-595,-1684,8052,-109,27,2,-16.54,-3.51,69.27
-683,-2025,8261,-108,21,4,-18.06,-3.86,69.13
-757,-2371,8463,-110,13,4,-19.59,-4.11,68.94
-838,-2663,8570,-115,3,2,-21.17,-4.22,68.72
-877,-2893,8482,-122,-8,-2,-22.86,-4.17,68.45
-884,-3073,8058,-128,-16,-6,-24.63,-3.99,68.15
-800,-3211,7416,-124,-13,-11,-26.42,-3.76,67.89
-675,-3353,6851,-114,1,-13,-28.10,-3.66,67.73
-583,-3498,6621,-102,17,-8,-29.62,-3.76,67.66
-520,-3631,6754,-93,21,0,-30.96,-4.00,67.55
-508,-3756,7072,-88,11,8,-32.17,-4.20,67.29
-547,-3879,7413,-90,-4,13,-33.35,-4.30,66.83
-569,-4021,7602,-97,-20,14,-34.59,-4.24,66.16
-574,-4204,7542,-107,-34,13,-35.98,-4.01,65.30
-538,-4437,7240,-115,-36,11,-37.52,-3.70,64.33
-477,-4689,6757,-119,-28,8,-39.17,-3.45,63.36
-450,-4967,6239,-118,-15,5,-40.87,-3.31,62.49
-471,-5238,5845,-109,-1,3,-42.49,-3.31,61.78
-523,-5424,5682,-96,7,2,-43.93,-3.41,61.22
-564,-5547,5732,-85,5,4,-45.17,-3.51,60.69
-614,-5624,5881,-79,-2,7,-46.26,-3.60,60.10
-643,-5736,5949,-78,-12,11,-47.31,-3.63,59.34
-672,-5937,5889,-78,-16,12,-48.36,-3.63,58.42
-663,-6171,5721,-79,-16,9,-49.45,-3.60,57.49
-589,-6407,5451,-81,-13,4,-50.60,-3.54,56.58
-513,-6599,5137,-82,-6,-2,-51.79,-3.46,55.78
-481,-6725,4846,-78,4,-7,-52.96,-3.42,55.15
-451,-6783,4670,-72,12,-8,-54.04,-3.42,54.69
-421,-6748,4637,-63,18,-8,-54.98,-3.47,54.38
-409,-6686,4676,-56,15,-6,-55.79,-3.53,54.13
-382,-6669,4712,-49,9,-3,-56.49,-3.57,53.83
-352,-6684,4701,-44,5,-2,-57.09,-3.58,53.48
-325,-6705,4658,-41,5,-2,-57.65,-3.59,53.14
-315,-6736,4639,-40,6,-2,-58.20,-3.61,52.82
-320,-6789,4674,-39,8,-1,-58.73,-3.65,52.52
-329,-6866,4712,-38,8,-1,-59.23,-3.69,52.24
-342,-6997,4716,-35,7,-1,-59.71,-3.73,51.95
-380,-7135,4716,-28,6,-2,-60.12,-3.75,51.73
-403,-7263,4718,-19,5,-3,-60.40,-3.75,51.61
-434,-7368,4749,-7,1,-5,-60.52,-3.71,51.60
-437,-7440,4797,5,-5,-5,-60.46,-3.63,51.67
-358,-7496,4811,14,-9,-5,-60.26,-3.51,51.79
-273,-7545,4773,21,-8,-5,-59.96,-3.37,51.99
-239,-7586,4751,29,-4,-5,-59.57,-3.26,52.32
-217,-7548,4826,36,-1,-5,-59.06,-3.18,52.81
-176,-7436,4946,39,1,-5,-58.48,-3.11,53.36
-168,-7299,5129,39,4,-3,-57.88,-3.08,53.96
-173,-7168,5296,36,4,-1,-57.29,-3.08,54.50
-179,-7117,5360,35,2,0,-56.74,-3.10,54.96
-205,-7142,5365,42,3,0,-56.14,-3.11,55.43
-277,-7248,5368,57,2,0,-55.38,-3.14,56.01
-406,-7440,5359,80,-4,0,-54.34,-3.14,56.70
-545,-7677,5426,113,-15,0,-52.89,-3.07,57.49
-583,-7691,5607,140,-30,-1,-51.01,-2.87,58.26
-454,-7393,5770,147,-39,-3,-48.91,-2.52,58.96
-302,-6842,5875,135,-36,-4,-46.91,-2.13,59.56
-161,-6185,5947,113,-23,-2,-45.16,-1.83,60.12
-75,-5662,5974,91,-6,0,-43.74,-1.71,60.61
826,519,7962,3,-4,-1,4.19,5.87,70.18
827,525,7955,4,-4,-2,4.25,5.92,70.20
830,553,7936,3,-3,-2,4.31,5.95,70.22
841,598,7919,3,-3,-2,4.37,5.99,70.25
839,634,7919,2,-2,-2,4.41,6.01,70.27
834,641,7944,1,-2,-1,4.44,6.03,70.28
820,615,7957,1,-4,-1,4.46,6.07,70.29
802,573,7955,0,-6,-1,4.46,6.14,70.31
797,524,7948,-1,-7,-2,4.45,6.21,70.34
802,473,7948,-3,-7,-4,4.41,6.30,70.39
813,430,7941,-7,-6,-6,4.33,6.37,70.46
810,425,7936,-13,-4,-8,4.17,6.42,70.58
800,444,7912,-23,-3,-10,3.91,6.44,70.71
825,459,7908,-37,-1,-12,3.47,6.43,70.88
909,442,7993,-53,6,-14,2.81,6.37,71.08
929,421,8119,-72,10,-17,1.90,6.24,71.31
847,351,8166,-93,6,-19,0.70,6.12,71.57
798,235,8090,-111,2,-21,-0.75,6.05,71.87
808,113,7913,-125,7,-25,-2.41,5.98,72.20
778,-33,7688,-134,13,-27,-4.21,5.84,72.55
740,-168,7436,-137,18,-27,-6.08,5.62,72.92
720,-296,7105,-136,22,-26,-7.94,5.37,73.25
741,-438,6839,-130,31,-22,-9.73,5.03,73.56
746,-619,6788,-122,38,-16,-11.42,4.58,73.80
710,-839,6980,-115,38,-6,-13.01,4.07,73.93
630,-1077,7273,-112,31,2,-14.55,3.61,73.93
524,-1390,7553,-115,23,7,-16.12,3.23,73.82
408,-1753,7840,-122,24,8,-17.79,2.87,73.65
290,-2135,8109,-132,23,4,-19.59,2.50,73.51
159,-2509,8270,-141,18,-1,-21.53,2.21,73.40
70,-2794,8256,-149,12,-5,-23.58,2.01,73.30
47,-2977,8057,-154,10,-7,-25.71,1.90,73.20
67,-3080,7770,-157,11,-6,-27.87,1.78,73.05
108,-3188,7463,-155,13,-2,-30.03,1.63,72.85
148,-3379,7195,-148,16,3,-32.12,1.44,72.58
199,-3662,6983,-138,16,9,-34.08,1.19,72.25
185,-3982,6840,-127,12,14,-35.90,0.93,71.82
130,-4313,6773,-119,7,16,-37.59,0.69,71.29
81,-4575,6803,-115,3,17,-39.21,0.49,70.69
65,-4775,6801,-118,-4,16,-40.82,0.36,70.01
64,-4942,6650,-122,-8,15,-42.49,0.28,69.23
38,-5107,6375,-125,-6,14,-44.23,0.20,68.40
35,-5301,6042,-122,-2,14,-45.96,0.08,67.56
25,-5564,5747,-113,1,14,-47.59,-0.07,66.75
-30,-5842,5579,-99,3,15,-49.06,-0.26,65.97
-37,-6067,5491,-86,-2,13,-50.31,-0.43,65.22
-23,-6210,5413,-73,-6,11,-51.39,-0.51,64.47
0,-6307,5319,-65,-5,10,-52.32,-0.58,63.78
29,-6394,5268,-61,-1,10,-53.17,-0.68,63.15
54,-6452,5293,-60,3,10,-53.99,-0.80,62.60
101,-6517,5275,-63,2,9,-54.83,-0.92,62.02
101,-6623,5182,-62,2,8,-55.69,-1.02,61.41
93,-6744,5113,-57,4,8,-56.50,-1.14,60.84
73,-6847,5103,-50,6,8,-57.20,-1.26,60.35
19,-6910,5193,-45,7,8,-57.81,-1.41,59.93
-22,-6934,5288,-42,2,9,-58.34,-1.55,59.49
-60,-7009,5228,-40,-5,11,-58.86,-1.65,58.91
-73,-7150,5035,-32,-7,11,-59.31,-1.74,58.29
-75,-7326,4887,-21,-5,10,-59.65,-1.83,57.79
-65,-7441,4896,-14,-3,9,-59.85,-1.92,57.46
-25,-7488,4973,-13,-3,8,-59.99,-1.99,57.18
-20,-7541,5030,-13,-3,7,-60.12,-2.04,56.91
-32,-7620,5037,-9,-3,6,-60.22,-2.10,56.69
-63,-7717,4999,1,-5,5,-60.23,-2.12,56.54
-118,-7842,4961,17,-9,3,-60.03,-2.11,56.52
-180,-7988,4850,39,-16,1,-59.55,-2.04,56.64
-236,-8187,4743,67,-19,-1,-58.73,-1.92,56.96
-235,-8367,4765,98,-21,-2,-57.49,-1.76,57.59
-160,-8424,4893,127,-25,-3,-55.83,-1.54,58.41
-146,-8266,5004,149,-29,-2,-53.82,-1.28,59.31
-123,-7950,5111,164,-34,-2,-51.58,-0.99,60.18
-33,-7465,5258,170,-34,0,-49.20,-0.68,60.99
52,-6905,5451,167,-30,2,-46.80,-0.39,61.73
88,-6419,5683,160,-24,5,-44.48,-0.17,62.36
92,-6083,5993,154,-17,5,-42.26,-0.03,62.95
43,-5906,6381,155,-16,3,-40.05,0.09,63.52
-42,-5805,6836,161,-24,0,-37.77,0.30,64.03
-116,-5684,7226,168,-41,-2,-35.40,0.68,64.43
-96,-5482,7456,173,-56,-4,-32.97,1.29,64.70
-3,-5174,7526,171,-62,-7,-30.55,2.04,64.94
130,-4792,7458,162,-60,-10,-28.24,2.84,65.17
311,-4395,7270,148,-51,-12,-26.12,3.59,65.42
488,-3989,7067,132,-36,-15,-24.21,4.19,65.72
624,-3602,6911,117,-18,-16,-22.50,4.58,66.11
705,-3279,6870,103,-4,-17,-20.99,4.78,66.50
719,-2986,6974,92,2,-15,-19.62,4.84,66.88
720,-2738,7099,85,1,-12,-18.36,4.87,67.19
729,-2558,7166,79,0,-11,-17.20,4.91,67.46
692,-2464,7236,77,1,-9,-16.10,4.93,67.69
600,-2453,7373,79,-1,-7,-15.00,4.94,67.89
501,-2464,7513,83,-10,-6,-13.86,5.02,68.04
447,-2423,7582,86,-19,-6,-12.69,5.23,68.15
421,-2331,7528,86,-23,-7,-11.50,5.52,68.25
415,-2228,7389,83,-23,-10,-10.34,5.84,68.38
448,-2104,7231,77,-16,-12,-9.25,6.09,68.55
535,-1960,7180,71,-4,-14,-8.24,6.21,68.77
584,-1778,7238,64,6,-15,-7.32,6.18,69.00
598,-1587,7370,57,10,-15,-6.48,6.06,69.22
613,-1400,7539,52,10,-13,-5.71,5.92,69.43
804,531,8227,0,-3,0,2.30,5.77,71.47
794,490,8248,1,-5,0,2.33,5.81,71.46
785,456,8229,1,-7,-1,2.34,5.88,71.48
802,445,8174,1,-7,-2,2.37,5.97,71.51
833,456,8111,1,-6,-3,2.40,6.06,71.54
857,484,8028,0,-5,-2,2.42,6.13,71.58
871,508,7960,-1,-4,-2,2.44,6.19,71.60
885,522,7928,-2,-3,-1,2.44,6.23,71.61
891,522,7935,-3,-1,-1,2.41,6.24,71.62
879,501,7974,-4,-1,-1,2.38,6.25,71.63
860,455,8016,-5,-2,-1,2.32,6.26,71.65
844,405,8029,-5,-2,-2,2.27,6.27,71.67
838,357,8014,-6,-3,-3,2.18,6.30,71.70
841,314,7961,-8,-3,-3,2.08,6.34,71.75
850,268,7927,-11,-2,-3,1.94,6.37,71.78
836,214,7881,-15,-2,-3,1.75,6.39,71.83
861,173,7846,-22,1,-3,1.46,6.38,71.87
873,115,7844,-32,6,-5,1.06,6.31,71.93
865,40,7905,-45,11,-7,0.48,6.16,72.02
849,-62,8016,-59,14,-10,-0.28,5.97,72.14
817,-170,8107,-74,15,-13,-1.26,5.75,72.30
782,-264,8106,-91,16,-18,-2.46,5.53,72.53
758,-349,8059,-105,20,-22,-3.86,5.27,72.80
732,-432,8027,-115,24,-24,-5.40,4.97,73.12
660,-537,8008,-119,25,-23,-7.01,4.64,73.42
569,-666,7965,-114,21,-20,-8.59,4.34,73.69
476,-819,7890,-105,17,-16,-10.06,4.11,73.89
397,-1025,7828,-93,13,-11,-11.39,3.92,74.03
323,-1230,7826,-83,8,-7,-12.57,3.78,74.10
286,-1421,7836,-78,2,-4,-13.66,3.73,74.10
270,-1570,7812,-80,0,-3,-14.76,3.71,74.07
232,-1691,7775,-88,1,-3,-15.95,3.68,74.04
237,-1825,7707,-100,5,-5,-17.29,3.62,74.00
259,-1949,7610,-112,10,-7,-18.80,3.51,74.01
295,-2086,7474,-122,13,-9,-20.44,3.37,74.03
339,-2229,7291,-124,15,-9,-22.15,3.21,74.05
382,-2398,7098,-121,17,-7,-23.84,3.04,74.05
421,-2608,6949,-111,18,-4,-25.42,2.84,74.03
452,-2815,6890,-100,18,1,-26.86,2.61,73.95
461,-3016,6914,-92,13,6,-28.16,2.40,73.81
393,-3236,7056,-88,10,11,-29.38,2.20,73.57
338,-3438,7290,-90,4,14,-30.61,2.02,73.22
325,-3624,7501,-98,-2,14,-31.91,1.91,72.80
344,-3804,7570,-111,-5,12,-33.37,1.86,72.33
330,-3996,7465,-122,-2,10,-35.01,1.80,71.83
299,-4211,7258,-127,4,8,-36.76,1.70,71.37
259,-4444,7016,-123,8,6,-38.49,1.55,70.95
171,-4728,6759,-107,6,8,-40.06,1.39,70.52
80,-5044,6586,-86,3,10,-41.35,1.24,70.07
17,-5303,6588,-65,-2,13,-42.34,1.10,69.60
13,-5490,6716,-54,-12,15,-43.12,1.04,69.07
58,-5572,6865,-51,-20,16,-43.79,1.05,68.43
101,-5600,6889,-57,-26,17,-44.51,1.12,67.67
214,-5670,6667,-67,-28,16,-45.40,1.24,66.80
307,-5768,6264,-76,-21,12,-46.44,1.35,65.96
375,-5883,5792,-79,-8,7,-47.58,1.39,65.25
439,-5960,5396,-77,4,2,-48.71,1.35,64.76
472,-5998,5139,-68,14,2,-49.73,1.24,64.41
475,-5989,5092,-61,19,6,-50.61,1.05,64.18
418,-6012,5255,-56,19,10,-51.38,0.77,63.97
329,-6071,5467,-54,11,13,-52.08,0.51,63.63
294,-6214,5550,-54,0,13,-52.79,0.34,63.13
309,-6435,5441,-52,-6,11,-53.52,0.26,62.49
314,-6675,5222,-47,-5,8,-54.21,0.22,61.91
330,-6854,5023,-41,2,4,-54.83,0.17,61.48
316,-6951,4907,-35,9,0,-55.35,0.10,61.26
257,-6958,4913,-28,13,-1,-55.77,0.02,61.20
203,-6930,5010,-22,12,1,-56.06,-0.09,61.21
155,-6928,5124,-16,6,3,-56.26,-0.19,61.17
126,-6999,5217,-9,1,5,-56.37,-0.28,61.07
131,-7130,5261,-1,-2,6,-56.38,-0.33,60.96
154,-7270,5243,7,-5,4,-56.29,-0.35,60.90
154,-7401,5187,17,-4,1,-56.09,-0.34,60.94
135,-7518,5189,31,-3,-2,-55.71,-0.29,61.14
86,-7609,5284,49,-5,-4,-55.10,-0.23,61.51
39,-7653,5437,68,-12,-6,-54.20,-0.10,61.97
39,-7631,5578,84,-21,-6,-53.05,0.11,62.43
127,-7403,5674,90,-25,-6,-51.77,0.39,62.84
304,-7005,5690,82,-22,-6,-50.55,0.68,63.22
459,-6580,5626,68,-11,-4,-49.50,0.89,63.60
556,-6269,5601,61,5,-3,-48.58,0.95,64.07
551,-6115,5678,63,17,-3,-47.67,0.87,64.70
424,-6105,5857,78,18,-1,-46.60,0.72,65.37
190,-6194,6137,105,9,1,-45.21,0.57,66.03
-99,-6279,6556,138,-12,4,-43.36,0.55,66.58
-272,-6289,6995,165,-42,6,-41.09,0.78,66.88
-218,-6126,7233,176,-67,5,-38.61,1.36,66.93
-58,-5806,7237,169,-74,2,-36.20,2.13,66.90
135,-5382,7092,149,-63,-1,-34.03,2.89,66.90
321,-4948,6902,125,-44,-5,-32.19,3.51,67.01
457,-4567,6693,102,-22,-9,-30.68,3.91,67.24
517,-4265,6568,86,-2,-11,-29.41,4.07,67.59
497,-4059,6604,79,10,-8,-28.27,4.03,67.96
427,-3969,6764,80,8,-3,-27.14,3.92,68.27
352,-3970,6972,87,-4,1,-25.96,3.90,68.45
335,-3963,7159,96,-17,1,-24.67,4.04,68.55
336,-3882,7247,103,-26,-1,-23.27,4.32,68.63
395,-3775,7293,107,-29,-4,-21.81,4.69,68.72
469,-3652,7390,108,-29,-7,-20.32,5.09,68.85
908,658,8157,5,-5,-1,4.05,6.67,73.23
933,663,8134,8,-5,-1,4.17,6.74,73.24
950,672,8110,10,-6,-1,4.32,6.80,73.25
979,705,8064,12,-7,-1,4.49,6.90,73.26
1008,755,7997,12,-5,-1,4.69,6.97,73.28
1039,812,7970,12,-3,-2,4.88,7.02,73.30
1058,862,7960,10,-3,-2,5.06,7.06,73.31
1090,893,7938,9,-3,-1,5.22,7.10,73.33
1117,914,7927,8,0,-2,5.36,7.11,73.34
1114,927,7925,8,1,-2,5.50,7.11,73.36
1107,943,7937,9,0,-2,5.65,7.10,73.38
1106,979,7991,11,2,-2,5.82,7.08,73.39
1085,1024,8077,14,-1,-2,6.03,7.07,73.41
1069,1077,8134,17,-5,-1,6.29,7.12,73.40
1053,1120,8135,19,-8,1,6.58,7.21,73.40
1042,1143,8087,21,-10,1,6.88,7.34,73.38
1071,1180,8026,21,-8,1,7.20,7.46,73.36
1085,1230,8007,20,-3,1,7.51,7.54,73.33
1078,1293,8027,16,1,1,7.77,7.53,73.30
1049,1350,8050,11,1,2,7.97,7.50,73.25
1021,1380,8044,4,1,2,8.08,7.48,73.20
999,1365,8021,-5,2,3,8.05,7.46,73.16
977,1316,7985,-15,2,2,7.88,7.43,73.12
963,1249,7913,-27,2,1,7.55,7.39,73.11
956,1160,7823,-41,4,-1,7.04,7.34,73.12
953,1043,7762,-54,7,-3,6.32,7.23,73.17
942,895,7714,-66,7,-5,5.45,7.11,73.24
960,710,7662,-74,6,-6,4.44,7.00,73.33
978,495,7616,-80,7,-5,3.32,6.90,73.42
967,290,7585,-84,7,-4,2.14,6.80,73.49
929,91,7547,-90,6,-3,0.89,6.71,73.54
873,-112,7503,-97,5,-3,-0.46,6.63,73.59
810,-283,7459,-108,4,-4,-1.96,6.56,73.64
760,-421,7365,-125,3,-7,-3.65,6.51,73.71
704,-535,7190,-144,3,-10,-5.59,6.46,73.80
691,-642,7010,-160,9,-13,-7.76,6.36,73.92
688,-746,6860,-171,14,-15,-10.10,6.19,74.06
665,-907,6728,-172,13,-13,-12.47,6.03,74.17
686,-1151,6646,-161,14,-6,-14.76,5.87,74.19
694,-1476,6705,-142,15,3,-16.81,5.65,74.10
679,-1859,6840,-120,9,11,-18.59,5.45,73.86
660,-2218,7001,-102,3,17,-20.12,5.30,73.52
662,-2523,7121,-91,-2,19,-21.47,5.20,73.13
654,-2750,7255,-90,1,19,-22.76,5.09,72.72
611,-2919,7437,-96,8,19,-24.09,4.88,72.33
623,-3065,7582,-108,13,17,-25.56,4.62,71.95
615,-3201,7648,-121,19,14,-27.18,4.30,71.63
544,-3358,7555,-128,20,11,-28.93,3.95,71.32
502,-3622,7347,-124,20,11,-30.68,3.61,71.01
481,-3989,7158,-110,23,12,-32.29,3.26,70.72
441,-4398,7114,-92,22,14,-33.68,2.88,70.43
372,-4758,7228,-74,16,15,-34.80,2.54,70.12
329,-5036,7394,-61,6,15,-35.71,2.30,69.77
352,-5173,7548,-57,1,13,-36.52,2.15,69.41
375,-5192,7641,-62,-2,11,-37.33,2.08,69.04
386,-5195,7670,-73,-1,10,-38.27,2.00,68.64
380,-5260,7613,-83,4,9,-39.37,1.88,68.25
357,-5388,7509,-90,10,7,-40.58,1.71,67.90
308,-5543,7402,-91,14,4,-41.83,1.52,67.60
241,-5716,7296,-87,14,2,-43.05,1.34,67.32
181,-5897,7213,-79,10,0,-44.17,1.21,67.06
131,-6022,7122,-69,3,-2,-45.15,1.15,66.79
120,-6078,6972,-62,-5,-3,-46.01,1.19,66.48
170,-6092,6744,-59,-10,-3,-46.82,1.30,66.11
230,-6081,6506,-55,-9,-3,-47.59,1.42,65.74
302,-6039,6295,-52,-7,-1,-48.30,1.51,65.37
367,-6010,6083,-50,-5,0,-48.99,1.57,65.02
411,-6019,5893,-49,-2,2,-49.65,1.58,64.66
456,-6051,5707,-48,0,3,-50.31,1.57,64.32
468,-6114,5509,-46,1,4,-50.96,1.52,63.97
492,-6148,5342,-45,5,5,-51.60,1.46,63.65
516,-6141,5264,-46,10,5,-52.22,1.33,63.40
515,-6146,5243,-48,12,6,-52.86,1.18,63.15
489,-6165,5223,-48,13,8,-53.50,0.99,62.90
446,-6199,5197,-48,15,9,-54.15,0.78,62.65
379,-6261,5185,-46,16,10,-54.76,0.53,62.41
281,-6353,5185,-40,14,11,-55.31,0.29,62.17
188,-6464,5209,-33,9,12,-55.76,0.06,61.90
128,-6592,5220,-27,5,13,-56.12,-0.15,61.60
67,-6733,5198,-22,0,15,-56.41,-0.35,61.23
20,-6876,5128,-20,-2,15,-56.67,-0.52,60.82
-16,-7001,5043,-18,0,13,-56.92,-0.69,60.47
-70,-7083,4999,-14,3,11,-57.13,-0.85,60.20
-109,-7139,4983,-9,3,9,-57.26,-1.00,60.04
-139,-7221,4962,-2,-1,9,-57.29,-1.12,59.89
-157,-7320,4903,8,-3,9,-57.20,-1.21,59.79
-188,-7417,4787,19,-5,7,-56.98,-1.27,59.75
-222,-7510,4657,35,-5,3,-56.57,-1.30,59.88
-246,-7600,4621,54,-4,0,-55.91,-1.29,60.23
-300,-7656,4695,72,-8,-2,-54.99,-1.24,60.74
-320,-7642,4816,87,-13,-4,-53.83,-1.12,61.29
-274,-7490,4994,99,-15,-5,-52.49,-0.96,61.92
-179,-7180,5192,102,-16,-6,-51.04,-0.77,62.53
-48,-6796,5359,97,-16,-4,-49.62,-0.57,63.09
87,-6398,5474,90,-11,-2,-48.28,-0.42,63.59
181,-6056,5492,83,-6,0,-47.05,-0.32,64.05
229,-5864,5466,81,2,1,-45.89,-0.32,64.52
195,-5837,5531,88,6,3,-44.68,-0.38,65.02
89,-5932,5750,103,1,5,-43.29,-0.47,65.49 
-143,991,8060,-2,1,0,5.91,-1.49,54.78
-159,981,8086,-2,0,1,5.89,-1.50,54.77
-189,963,8116,-2,0,1,5.88,-1.51,54.74
-215,931,8134,-1,-1,2,5.87,-1.50,54.71
-229,884,8136,0,-2,2,5.87,-1.49,54.69
-248,847,8133,0,-2,1,5.87,-1.47,54.66
-263,830,8139,1,-1,1,5.89,-1.47,54.64
-271,819,8150,2,0,1,5.92,-1.47,54.63
-276,816,8150,2,0,0,5.95,-1.48,54.61
-283,820,8163,2,0,0,5.98,-1.49,54.60
-283,831,8170,3,-1,0,6.02,-1.50,54.59
-276,845,8167,3,0,0,6.08,-1.50,54.58
-268,858,8163,3,0,0,6.13,-1.51,54.58
-265,867,8145,3,-2,0,6.18,-1.51,54.57
-259,868,8121,2,-4,0,6.22,-1.46,54.56
-250,848,8099,4,-6,0,6.27,-1.40,54.54
-224,814,8099,7,-7,0,6.35,-1.30,54.53
-205,781,8124,11,-11,1,6.48,-1.17,54.52
-185,746,8135,17,-17,1,6.69,-0.96,54.50
-139,754,8100,22,-22,2,6.97,-0.67,54.47
-81,828,8059,27,-23,3,7.34,-0.34,54.43
-17,946,8035,30,-22,4,7.76,-0.02,54.37
37,1053,8030,31,-21,6,8.22,0.28,54.29
67,1149,8076,31,-25,7,8.67,0.62,54.18
160,1253,8177,31,-27,8,9.13,1.01,54.07
270,1371,8272,30,-24,8,9.57,1.38,53.95
311,1440,8316,23,-22,8,9.94,1.71,53.83
288,1474,8283,8,-37,7,10.13,2.15,53.77
335,1583,8172,-20,-79,6,9.98,3.10,53.81
468,1802,7981,-58,-107,6,9.36,4.52,54.00
585,2053,7773,-98,-105,7,8.23,6.03,54.25
688,2135,7509,-137,-92,7,6.55,7.36,54.52
890,1998,7154,-173,-74,4,4.34,8.48,54.80
1311,1636,6672,-202,-23,-2,1.67,9.07,55.06
1723,1037,6134,-218,53,-14,-1.31,8.70,55.34
1800,276,5807,-224,122,-24,-4.43,7.33,55.66
1580,-499,5901,-216,163,-29,-7.52,5.26,56.05
1145,-1099,6388,-201,171,-26,-10.42,2.94,56.44
663,-1539,7080,-187,146,-19,-13.11,0.83,56.77
228,-1898,7745,-177,107,-13,-15.63,-0.76,56.96
-140,-2195,8207,-171,66,-9,-18.05,-1.79,56.98
-429,-2447,8437,-169,36,-9,-20.41,-2.38,56.85
-647,-2679,8465,-170,13,-10,-22.78,-2.62,56.59
-716,-2873,8265,-173,-5,-10,-25.17,-2.60,56.19
-664,-3054,7828,-178,-13,-10,-27.64,-2.42,55.65
-622,-3283,7260,-178,-3,-7,-30.15,-2.30,55.03
-689,-3602,6753,-172,18,-4,-32.62,-2.44,54.43
-759,-3968,6453,-162,35,0,-34.99,-2.84,53.85
-849,-4270,6427,-152,47,3,-37.19,-3.40,53.32
-941,-4554,6571,-145,51,6,-39.25,-4.05,52.79
-1103,-4885,6711,-140,46,8,-41.23,-4.68,52.19
-1318,-5276,6757,-135,36,8,-43.14,-5.22,51.49
-1461,-5668,6735,-129,21,5,-44.98,-5.59,50.67
-1517,-5974,6617,-124,4,-1,-46.73,-5.74,49.74
-1412,-6240,6272,-118,-13,-7,-48.41,-5.64,48.69
-1236,-6476,5720,-108,-18,-11,-50.01,-5.38,47.63
-1060,-6652,5201,-95,-9,-13,-51.46,-5.15,46.71
-862,-6739,4784,-79,-1,-12,-52.70,-4.98,45.98
-747,-6730,4548,-62,11,-11,-53.71,-4.91,45.51
-753,-6640,4639,-46,20,-7,-54.44,-4.97,45.29
-795,-6482,5016,-37,15,-3,-54.95,-5.09,45.13
-781,-6291,5417,-36,4,-1,-55.35,-5.15,44.91
-760,-6198,5599,-39,-7,1,-55.76,-5.13,44.50
-713,-6269,5480,-43,-10,3,-56.26,-5.08,43.93
-642,-6502,5148,-44,-10,3,-56.85,-5.04,43.27
-576,-6845,4767,-41,-5,1,-57.46,-4.99,42.66
-528,-7149,4486,-34,6,-4,-58.02,-4.98,42.25
-520,-7333,4428,-25,15,-10,-58.46,-4.97,42.15
-556,-7394,4567,-17,16,-13,-58.75,-4.94,42.29
-578,-7400,4746,-7,8,-14,-58.87,-4.86,42.50
-517,-7394,4842,4,-1,-13,-58.82,-4.70,42.76
-443,-7389,4865,16,-5,-11,-58.61,-4.52,43.08
-401,-7356,4902,29,-1,-8,-58.22,-4.38,43.52
-357,-7330,5045,41,5,-6,-57.66,-4.32,44.16
-374,-7319,5242,56,8,-6,-56.89,-4.29,44.99
-441,-7392,5416,77,5,-4,-55.85,-4.28,45.98
-515,-7547,5537,106,2,-2,-54.46,-4.28,47.13
-597,-7677,5640,140,-7,1,-52.62,-4.26,48.42
-615,-7687,5761,172,-25,4,-50.30,-4.14,49.70
-515,-7472,5894,195,-48,8,-47.59,-3.83,50.79
-325,-6982,6028,200,-63,9,-44.73,-3.31,51.64
-83,-6297,6129,185,-65,10,-41.98,-2.70,52.26
163,-5604,6208,162,-56,10,-39.53,-2.11,52.72
303,-4984,6281,137,-35,11,-37.44,-1.70,53.11
346,-4481,6436,117,-1,15,-35.64,-1.67,53.51
264,-4146,6745,108,28,18,-34.01,-2.03,53.97
16,-3990,7152,109,38,19,-32.41,-2.62,54.46
-327,-4016,7604,120,26,22,-30.69,-3.17,54.87
-641,-4151,8028,134,-1,25,-28.80,-3.47,55.11
-807,-4284,8353,144,-35,26,-26.76,-3.37,55.13
-825,-4368,8520,146,-62,24,-24.68,-2.86,55.00
-790,-4381,8456,142,-78,18,-22.68,-2.03,54.83
-720,-4303,8217,133,-81,9,-20.81,-1.07,54.72
-563,-4043,7946,122,-68,-2,-19.10,-0.14,54.74
-353,-3616,7735,110,-47,-12,-17.55,0.59,54.95
-186,-3137,7617,99,-26,-19,-16.11,1.08,55.30
-95,-2715,7583,91,-14,-19,-14.77,1.37,55.68
-25,-2362,7602,86,-12,-13,-13.51,1.57,55.99
67,-2066,7619,81,-12,-6,-12.32,1.76,56.19
418,1132,8119,1,-2,-2,7.97,2.80,58.89
424,1165,8113,1,-3,-1,8.00,2.83,58.90
430,1181,8076,2,-4,-1,8.04,2.88,58.91
442,1194,8019,2,-5,0,8.08,2.94,58.92
456,1205,7972,2,-4,0,8.12,2.99,58.91
473,1193,7947,2,-1,0,8.17,3.02,58.90
476,1173,7951,2,0,0,8.20,3.02,58.90
455,1141,7977,2,1,0,8.24,3.00,58.89
437,1106,8034,2,1,-1,8.26,2.98,58.89
418,1072,8060,2,-1,-1,8.28,2.98,58.89
401,1040,8045,3,-4,-2,8.31,3.00,58.91
404,1026,8011,4,-6,-3,8.36,3.06,58.96
425,1040,7963,6,-6,-4,8.44,3.14,59.01
448,1057,7894,7,-4,-4,8.54,3.20,59.07
455,1097,7818,7,-4,-4,8.65,3.24,59.12
465,1147,7761,6,-2,-4,8.75,3.26,59.16
479,1195,7721,5,0,-3,8.84,3.27,59.20
486,1214,7732,4,1,-3,8.92,3.25,59.23
477,1197,7777,3,0,-3,8.97,3.24,59.25
458,1167,7843,2,0,-3,8.99,3.23,59.28
448,1146,7885,0,1,-4,9.00,3.21,59.31
442,1137,7908,-4,4,-6,8.96,3.14,59.38
423,1146,7920,-10,7,-8,8.86,3.04,59.47
389,1164,7911,-20,8,-10,8.63,2.90,59.61
352,1166,7885,-32,5,-13,8.23,2.78,59.79
322,1133,7855,-45,1,-15,7.66,2.71,60.01
320,1050,7788,-55,-3,-16,6.94,2.70,60.28
343,949,7694,-61,-5,-18,6.11,2.73,60.57
397,850,7624,-64,1,-21,5.23,2.71,60.90
455,755,7570,-67,12,-24,4.33,2.56,61.25
475,692,7562,-72,26,-25,3.35,2.23,61.61
424,650,7634,-80,36,-26,2.28,1.74,61.96
361,601,7791,-92,38,-26,1.07,1.19,62.32
264,548,7985,-106,29,-26,-0.33,0.73,62.67
121,469,8217,-122,22,-24,-1.94,0.39,63.00
-6,364,8460,-139,12,-22,-3.79,0.17,63.28
-15,184,8633,-156,0,-19,-5.87,0.12,63.48
49,-85,8654,-169,-3,-16,-8.16,0.19,63.60
35,-441,8508,-174,3,-16,-10.56,0.21,63.66
-70,-902,8267,-170,9,-15,-12.97,0.12,63.69
-182,-1342,8078,-160,12,-15,-15.28,-0.01,63.70
-251,-1693,8000,-150,6,-12,-17.42,-0.10,63.65
-269,-1997,7989,-143,-4,-8,-19.45,-0.06,63.49
-279,-2223,8025,-142,-15,-3,-21.42,0.09,63.21
-257,-2367,8010,-149,-21,0,-23.45,0.33,62.78
-214,-2443,7885,-164,-18,3,-25.63,0.55,62.24
-157,-2596,7675,-182,-7,5,-28.06,0.63,61.61
-88,-2872,7431,-197,12,7,-30.74,0.48,60.94
-71,-3245,7194,-207,33,6,-33.60,0.10,60.26
-113,-3709,6944,-209,48,3,-36.53,-0.45,59.63
-223,-4187,6677,-199,56,-1,-39.39,-1.07,59.09
-388,-4640,6488,-181,53,-5,-42.03,-1.66,58.60
-505,-5001,6357,-160,37,-5,-44.37,-2.08,58.07
-594,-5275,6254,-142,16,0,-46.42,-2.32,57.33
-589,-5445,6181,-130,-1,7,-48.25,-2.43,56.34
-543,-5586,6048,-124,-13,11,-49.96,-2.46,55.12
-549,-5845,5811,-117,-19,14,-51.59,-2.46,53.73
-592,-6191,5554,-105,-19,14,-53.10,-2.49,52.31
-594,-6498,5359,-92,-14,11,-54.45,-2.52,51.00
-552,-6734,5268,-82,-16,6,-55.62,-2.50,49.84
-478,-6864,5126,-77,-24,1,-56.70,-2.37,48.69
-357,-6880,4857,-73,-28,-3,-57.72,-2.14,47.55
-302,-6942,4473,-67,-29,-2,-58.71,-1.90,46.39
-137,-6937,4061,-60,-15,-3,-59.62,-1.73,45.41
2,-6929,3811,-54,-2,-1,-60.43,-1.65,44.65
56,-6961,3773,-46,-1,3,-61.13,-1.65,43.99
5,-7004,3915,-41,-7,8,-61.70,-1.69,43.30
-23,-7107,4087,-39,-11,11,-62.20,-1.76,42.53
-34,-7314,4236,-38,-15,10,-62.70,-1.78,41.72
-30,-7551,4271,-34,-19,7,-63.16,-1.76,40.93
40,-7765,4174,-28,-19,3,-63.56,-1.68,40.22
113,-7846,4041,-23,-9,0,-63.90,-1.59,39.72
142,-7894,3972,-19,3,-2,-64.18,-1.55,39.47
135,-7908,3969,-15,11,-3,-64.40,-1.55,39.39
105,-7905,4074,-10,18,-5,-64.54,-1.59,39.54
112,-7916,4198,-5,16,-6,-64.59,-1.61,39.78
131,-7950,4280,0,14,-5,-64.57,-1.61,40.07
97,-7980,4374,6,14,-5,-64.48,-1.62,40.44
102,-8005,4467,13,5,-6,-64.28,-1.60,40.84
177,-8066,4494,20,-5,-6,-63.98,-1.48,41.22
236,-8149,4466,31,-6,-6,-63.56,-1.35,41.67
279,-8224,4450,44,-5,-5,-62.97,-1.23,42.28
266,-8209,4453,59,-6,-6,-62.18,-1.10,43.08
213,-8109,4452,76,-9,-6,-61.17,-0.95,44.03
121,-7974,4575,97,-4,-5,-59.87,-0.85,45.21
23,-7818,4908,114,0,-2,-58.27,-0.82,46.58
-104,-7604,5398,126,-4,0,-56.46,-0.82,47.97
-241,-7357,5789,129,-19,2,-54.54,-0.75,49.18
-305,-7126,5950,128,-37,1,-52.66,-0.52,50.06
-261,-6861,5956,123,-46,-2,-50.86,-0.15,50.72
-135,-6518,5814,110,-50,-6,-49.22,0.33,51.25
23,-6170,5493,93,-55,-10,-47.83,0.94,51.63
165,-5907,5030,80,-45,-13,-46.70,1.55,51.94
349,-5767,4576,77,-17,-11,-45.69,1.92,52.38
558,-5711,4324,85,15,-7,-44.60,1.97,53.06
641,-5702,4366,101,38,-2,-43.29,1.70,53.97
503,-5614,4722,117,43,5,-41.73,1.24,54.94
224,-5398,5383,123,34,13,-39.99,0.71,55.75
-19,-5091,6140,117,15,18,-38.23,0.28,56.32
709,1009,8129,3,-5,2,7.13,4.55,63.38
720,997,8079,2,-3,1,7.17,4.60,63.35
734,987,8022,0,-1,0,7.18,4.63,63.35
739,985,7985,-1,1,-1,7.17,4.62,63.35
738,996,7987,-2,3,-1,7.15,4.57,63.36
721,1021,8016,-3,4,-1,7.12,4.51,63.37
698,1042,8049,-3,3,-1,7.09,4.46,63.37
667,1043,8096,-2,2,-1,7.07,4.41,63.39
637,1032,8135,-1,0,-1,7.05,4.39,63.39
616,1024,8171,0,-1,-1,7.05,4.39,63.39
610,1027,8191,1,-2,-1,7.07,4.39,63.40
596,1034,8213,3,-3,-1,7.12,4.42,63.41
583,1034,8213,4,-5,0,7.18,4.48,63.41
583,1031,8186,5,-7,0,7.25,4.56,63.42
595,1028,8133,5,-8,0,7.32,4.66,63.42
607,1018,8042,3,-8,-1,7.38,4.76,63.43
630,1004,7969,1,-6,-2,7.41,4.85,63.46
668,1022,7939,-2,-2,-2,7.41,4.89,63.48
711,1052,7937,-6,0,-3,7.35,4.89,63.53
739,1076,7947,-11,-1,-4,7.24,4.89,63.58
772,1076,7917,-17,-2,-3,7.05,4.92,63.64
807,1052,7864,-23,0,-3,6.77,4.92,63.69
822,997,7791,-29,3,-5,6.39,4.90,63.77
799,935,7749,-37,2,-6,5.92,4.86,63.87
760,854,7708,-47,-3,-8,5.31,4.87,64.00
726,739,7654,-58,-7,-10,4.54,4.94,64.18
723,602,7592,-70,-8,-12,3.61,5.04,64.38
754,462,7573,-82,-4,-14,2.50,5.10,64.62
810,314,7628,-93,3,-17,1.25,5.08,64.87
877,192,7775,-105,13,-19,-0.16,4.95,65.14
885,118,7986,-116,20,-20,-1.72,4.70,65.42
857,76,8172,-129,19,-19,-3.43,4.44,65.68
786,54,8317,-140,17,-17,-5.29,4.21,65.91
681,5,8337,-151,9,-15,-7.31,4.06,66.07
603,-127,8195,-158,2,-12,-9.43,4.02,66.17
569,-344,7974,-158,3,-10,-11.60,4.00,66.18
545,-656,7807,-155,9,-5,-13.74,3.92,66.14
494,-1026,7726,-150,16,0,-15.84,3.72,66.01
412,-1481,7725,-145,19,3,-17.88,3.44,65.82
348,-1928,7800,-140,21,2,-19.87,3.12,65.62
331,-2342,7911,-138,20,0,-21.81,2.83,65.43
288,-2656,7979,-139,17,-2,-23.75,2.59,65.24
211,-2894,7904,-141,10,-3,-25.70,2.43,64.99
151,-3091,7696,-142,5,-2,-27.67,2.34,64.69
155,-3269,7464,-142,6,0,-29.64,2.25,64.32
222,-3461,7233,-142,8,3,-31.62,2.14,63.89
273,-3669,6999,-142,12,5,-33.60,1.98,63.41
246,-3934,6773,-143,20,7,-35.59,1.72,62.91
185,-4262,6608,-144,29,7,-37.61,1.34,62.42
108,-4559,6513,-144,37,5,-39.63,0.88,61.98
-4,-4810,6470,-143,39,2,-41.63,0.42,61.59
-147,-4993,6445,-141,33,2,-43.59,-0.00,61.14
-266,-5139,6379,-136,23,4,-45.48,-0.33,60.57
-336,-5325,6232,-129,8,9,-47.27,-0.56,59.77
-398,-5555,5980,-119,-6,15,-48.96,-0.71,58.71
-417,-5756,5672,-109,-14,19,-50.53,-0.82,57.46
-357,-5847,5382,-104,-13,20,-52.00,-0.94,56.15
-286,-5926,5077,-105,-11,20,-53.46,-1.08,54.81
-237,-6041,4717,-107,-5,19,-54.96,-1.25,53.43
-218,-6164,4308,-109,7,17,-56.51,-1.50,52.13
-175,-6283,3785,-110,17,14,-58.11,-1.78,50.88
-180,-6428,3250,-106,33,12,-59.71,-2.14,49.77
-240,-6650,2941,-98,49,14,-61.23,-2.63,48.90
-381,-6944,2929,-87,54,17,-62.58,-3.20,48.22
-590,-7322,3120,-75,42,19,-63.73,-3.75,47.53
-744,-7778,3370,-63,23,16,-64.69,-4.17,46.72
-784,-8195,3547,-52,6,10,-65.46,-4.40,45.85
-727,-8536,3602,-39,-6,3,-66.06,-4.45,44.98
-711,-8687,3620,-26,-8,-1,-66.48,-4.41,44.33
-647,-8697,3664,-14,-7,-3,-66.70,-4.34,43.96
-548,-8654,3748,-4,-4,-3,-66.77,-4.26,43.82
-446,-8602,3885,6,3,-1,-66.69,-4.23,43.98
-304,-8582,4004,14,7,1,-66.49,-4.26,44.34
-194,-8632,4059,25,12,2,-66.16,-4.30,44.93
-159,-8730,4167,42,16,1,-65.62,-4.37,45.86
-157,-8817,4441,61,18,-1,-64.81,-4.43,47.15
-186,-8817,4839,83,12,-5,-63.67,-4.44,48.74
-247,-8738,5204,110,-1,-9,-62.15,-4.34,50.48
-377,-8625,5562,147,-20,-11,-60.13,-4.10,52.28
-445,-8391,5933,183,-48,-9,-57.56,-3.71,53.93
-314,-7986,6186,204,-77,-8,-54.61,-3.06,55.16
-100,-7385,6224,207,-90,-7,-51.57,-2.21,56.04
95,-6649,6129,194,-82,-8,-48.69,-1.33,56.75
308,-5920,6015,172,-58,-8,-46.11,-0.58,57.46
473,-5365,6034,154,-26,-7,-43.81,-0.13,58.27
486,-5044,6251,145,-3,-4,-41.68,0.03,59.14
370,-4890,6602,144,1,0,-39.58,0.03,59.95
208,-4876,6934,147,-10,6,-37.45,0.06,60.56
41,-4925,7129,150,-29,9,-35.32,0.22,60.91
-88,-4962,7183,151,-43,8,-33.20,0.59,61.10
-152,-4943,7125,146,-50,4,-31.16,1.09,61.23
-135,-4819,7000,136,-47,-3,-29.25,1.65,61.41
-31,-4546,6873,119,-33,-10,-27.55,2.15,61.69
68,-4192,6787,99,-13,-15,-26.09,2.45,62.08
159,-3856,6829,82,7,-17,-24.86,2.53,62.54
177,-3582,6988,71,19,-14,-23.80,2.39,63.01
107,-3430,7138,68,22,-10,-22.81,2.14,63.42
7,-3403,7230,73,17,-5,-21.80,1.90,63.74
-102,-3443,7293,86,8,-1,-20.67,1.73,63.98
596,832,8124,1,-1,-1,5.45,4.20,65.85
596,821,8141,2,-4,-1,5.48,4.23,65.85
606,825,8137,4,-5,-1,5.55,4.29,65.86
623,838,8129,5,-5,-1,5.63,4.36,65.87
629,873,8112,5,-5,-1,5.72,4.43,65.89
648,915,8087,5,-5,-1,5.80,4.49,65.91
672,967,8065,4,-4,-1,5.88,4.55,65.92
703,1019,8038,3,-3,-1,5.95,4.59,65.92
721,1067,8022,2,-2,0,6.01,4.62,65.93
732,1097,8024,1,-2,1,6.06,4.66,65.92
730,1109,8019,0,-3,1,6.08,4.69,65.90
731,1099,8016,-1,-3,1,6.09,4.73,65.88
747,1095,8023,-2,-3,1,6.09,4.77,65.87
763,1113,8033,-3,-2,1,6.07,4.80,65.86
766,1127,8036,-5,-1,2,6.04,4.82,65.84
757,1115,8063,-7,-1,3,5.96,4.83,65.80
746,1076,8088,-9,-1,4,5.86,4.85,65.75
708,1012,8094,-11,-3,4,5.73,4.88,65.70
659,938,8050,-15,-6,4,5.53,4.94,65.65
640,858,7981,-20,-7,3,5.27,5.03,65.62
659,797,7912,-26,-5,1,4.93,5.11,65.61
699,746,7862,-34,-1,-1,4.49,5.14,65.63
731,676,7839,-44,5,-3,3.92,5.08,65.69
773,599,7861,-55,11,-4,3.20,4.94,65.75
791,519,7914,-68,18,-5,2.30,4.72,65.82
747,441,7988,-82,23,-8,1.22,4.41,65.92
677,360,8041,-96,26,-11,-0.04,4.05,66.07
597,246,8055,-108,28,-14,-1.48,3.66,66.24
493,107,8055,-116,29,-16,-3.06,3.23,66.45
388,-67,8034,-120,27,-16,-4.71,2.84,66.65
310,-255,8018,-119,22,-15,-6.37,2.51,66.84
276,-460,8008,-115,19,-13,-7.97,2.23,66.99
234,-677,8013,-110,16,-11,-9.50,2.01,67.10
221,-883,7993,-107,11,-7,-10.99,1.84,67.14
207,-1071,7943,-107,5,-5,-12.48,1.76,67.12
194,-1272,7880,-111,2,-2,-14.00,1.72,67.04
218,-1499,7789,-118,3,-1,-15.62,1.68,66.91
216,-1770,7703,-128,10,-1,-17.38,1.56,66.76
200,-2105,7608,-140,18,-2,-19.30,1.34,66.62
210,-2439,7440,-152,30,-7,-21.41,1.01,66.53
182,-2751,7241,-160,46,-15,-23.64,0.53,66.57
106,-3053,7089,-163,57,-21,-25.95,-0.05,66.76
-19,-3328,7064,-158,59,-23,-28.21,-0.66,67.01
-205,-3566,7242,-145,51,-20,-30.29,-1.21,67.25
-318,-3718,7513,-128,29,-13,-32.12,-1.56,67.31
-328,-3831,7667,-113,-2,-5,-33.70,-1.59,67.08
-363,-3997,7617,-102,-28,4,-35.10,-1.38,66.52
-364,-4184,7377,-94,-42,11,-36.40,-1.03,65.68
-267,-4385,7002,-94,-43,14,-37.71,-0.67,64.72
-155,-4596,6537,-100,-32,13,-39.09,-0.40,63.77
-27,-4819,6069,-111,-11,8,-40.64,-0.30,62.96
107,-4993,5666,-122,15,0,-42.37,-0.39,62.38
114,-5101,5442,-129,36,-7,-44.20,-0.64,62.07
56,-5160,5362,-131,43,-9,-46.05,-0.97,61.89
-51,-5166,5414,-127,41,-7,-47.84,-1.31,61.69
-109,-5177,5456,-121,26,-1,-49.51,-1.58,61.30
-157,-5311,5367,-114,5,7,-51.10,-1.73,60.55
-241,-5527,5214,-104,-11,15,-52.56,-1.84,59.43
-259,-5768,5044,-96,-19,20,-53.91,-1.93,58.08
-247,-5976,4862,-94,-19,22,-55.22,-2.03,56.64
-229,-6166,4631,-94,-15,22,-56.53,-2.16,55.16
-219,-6377,4462,-95,-2,20,-57.87,-2.37,53.77
-264,-6612,4402,-94,10,19,-59.20,-2.65,52.54
-347,-6914,4391,-89,14,18,-60.46,-2.98,51.41
-466,-7252,4381,-76,8,16,-61.58,-3.27,50.29
-570,-7570,4324,-58,-2,16,-62.45,-3.49,49.22
-634,-7800,4297,-38,-9,16,-63.04,-3.66,48.25
-668,-7947,4356,-26,-15,16,-63.41,-3.80,47.41
-689,-8083,4435,-20,-19,17,-63.67,-3.91,46.57
-690,-8249,4542,-18,-18,18,-63.86,-4.03,45.80
-668,-8432,4561,-15,-21,18,-64.03,-4.14,45.02
-650,-8596,4592,-8,-13,15,-64.12,-4.26,44.43
-616,-8703,4674,0,-7,10,-64.11,-4.35,44.14
-609,-8799,4769,12,-7,3,-63.94,-4.35,44.16
-577,-8883,4796,28,-12,-4,-63.56,-4.26,44.45
-481,-8936,4691,50,-18,-12,-62.93,-4.02,45.02
-395,-8901,4595,76,-19,-18,-61.96,-3.67,45.98
-258,-8685,4579,100,-22,-21,-60.63,-3.25,47.25
-48,-8331,4620,117,-24,-20,-59.02,-2.80,48.68
141,-7876,4686,126,-22,-16,-57.25,-2.38,50.11
252,-7371,4803,130,-16,-11,-55.39,-2.06,51.48
321,-6883,4981,128,-9,-5,-53.53,-1.86,52.76
331,-6513,5195,125,-2,-1,-51.70,-1.78,53.93
278,-6289,5448,126,2,1,-49.88,-1.78,55.01
166,-6176,5726,134,1,3,-47.98,-1.82,56.04
-7,-6134,6020,144,-6,5,-45.94,-1.84,56.97
-192,-6137,6295,155,-20,8,-43.76,-1.78,57.71
-292,-6107,6457,161,-34,9,-41.49,-1.57,58.25
-264,-5965,6455,159,-41,6,-39.24,-1.23,58.66
-164,-5706,6411,151,-31,2,-37.09,-0.88,59.08
-130,-5379,6442,139,-17,-1,-35.09,-0.65,59.58
-178,-5051,6534,123,-7,-2,-33.28,-0.54,60.08
-207,-4752,6670,108,0,-2,-31.69,-0.53,60.52
-268,-4519,6781,96,2,-2,-30.28,-0.56,60.92
-347,-4415,6892,90,4,-1,-29.00,-0.62,61.27
-451,-4381,7055,93,7,0,-27.71,-0.74,61.60
-615,-4370,7281,101,2,2,-26.34,-0.84,61.88
-788,-4354,7488,109,-15,4,-24.86,-0.80,62.07
-869,-4309,7575,113,-36,6,-23.32,-0.51,62.12
1066,682,8048,2,-4,1,5.12,7.35,65.93
1075,660,7995,2,-2,0,5.15,7.38,65.92
1070,654,7962,1,-1,-1,5.18,7.39,65.93
1062,666,7956,1,0,-1,5.20,7.40,65.94
1064,685,7974,2,0,-1,5.22,7.39,65.95
1056,701,8004,3,-2,-1,5.27,7.40,65.95
1047,711,8011,4,-3,0,5.33,7.43,65.96
1037,703,8013,5,-4,0,5.41,7.48,65.94
1024,681,8005,7,-6,0,5.50,7.54,65.94
1026,657,7983,8,-7,-1,5.61,7.63,65.94
1047,643,7973,9,-6,-2,5.73,7.70,65.95
1062,653,7965,10,-4,-3,5.87,7.76,65.98
1060,680,7944,10,-4,-3,6.02,7.81,66.01
1075,725,7916,9,-3,-3,6.17,7.84,66.05
1090,781,7904,8,-2,-3,6.29,7.87,66.08
1082,823,7887,7,-4,-2,6.40,7.91,66.09
1077,852,7875,8,-6,-2,6.52,7.96,66.12
1098,877,7867,10,-8,-1,6.66,8.06,66.15
1117,900,7853,12,-8,-1,6.83,8.16,66.16
1123,934,7835,13,-10,0,7.02,8.29,66.15
1138,961,7812,13,-12,1,7.21,8.44,66.15
1152,992,7812,12,-14,1,7.40,8.62,66.14
1176,1028,7827,13,-15,1,7.58,8.82,66.14
1196,1073,7802,13,-15,1,7.78,9.03,66.14
1199,1121,7770,10,-13,1,7.94,9.22,66.15
1195,1196,7782,4,-12,1,8.04,9.38,66.16
1200,1270,7813,-4,-12,1,8.04,9.52,66.16
1220,1271,7807,-12,-11,1,7.93,9.68,66.18
1216,1175,7794,-19,-13,1,7.69,9.84,66.20
1194,1016,7835,-21,-20,0,7.40,10.08,66.25
1183,851,7856,-17,-31,-2,7.13,10.45,66.35
1206,754,7784,-17,-38,-4,6.89,10.94,66.50
1263,728,7622,-26,-38,-5,6.59,11.46,66.67
1344,779,7414,-42,-34,-7,6.09,11.93,66.87
1523,826,7260,-61,-21,-7,5.35,12.28,67.08
1668,921,7140,-83,0,-8,4.32,12.37,67.27
1750,987,7047,-108,20,-8,2.98,12.17,67.43
1728,983,7018,-134,36,-7,1.25,11.74,67.57
1635,861,7041,-157,48,-6,-0.79,11.10,67.67
1533,648,7061,-175,55,-3,-3.13,10.35,67.73
1443,350,7036,-187,58,0,-5.68,9.55,67.74
1360,-24,7016,-189,61,1,-8.30,8.69,67.72
1242,-435,7119,-183,65,3,-10.88,7.80,67.65
1063,-795,7348,-174,61,6,-13.33,6.91,67.56
873,-1099,7553,-170,49,10,-15.70,6.13,67.38
723,-1404,7673,-171,42,15,-18.07,5.46,67.09
570,-1718,7758,-172,42,17,-20.46,4.80,66.74
423,-2066,7796,-174,42,17,-22.86,4.12,66.35
290,-2435,7817,-173,44,15,-25.28,3.43,65.96
182,-2809,7847,-169,45,14,-27.63,2.74,65.59
107,-3198,7829,-164,41,14,-29.91,2.08,65.19
10,-3568,7715,-159,32,16,-32.14,1.52,64.70
-52,-3956,7452,-151,21,17,-34.29,1.07,64.08
-79,-4309,7073,-142,15,18,-36.34,0.72,63.38
-112,-4616,6733,-133,15,19,-38.27,0.37,62.64
-84,-4889,6525,-126,15,20,-40.09,0.02,61.89
-27,-5130,6402,-122,15,21,-41.83,-0.34,61.12
10,-5384,6317,-120,12,21,-43.52,-0.67,60.26
44,-5605,6219,-119,10,20,-45.19,-0.96,59.37
79,-5747,6106,-120,14,18,-46.85,-1.27,58.47
81,-5895,5939,-122,14,16,-48.54,-1.57,57.55
37,-6120,5675,-121,11,15,-50.25,-1.83,56.55
-28,-6355,5346,-114,10,14,-51.91,-2.08,55.51
-84,-6568,5045,-102,10,13,-53.43,-2.32,54.47
-112,-6711,4894,-88,12,12,-54.75,-2.54,53.57
-156,-6847,4931,-79,14,13,-55.89,-2.80,52.75
-275,-6968,5124,-72,13,14,-56.90,-3.08,51.99
-372,-7084,5288,-69,2,14,-57.80,-3.31,51.13
-387,-7245,5237,-66,-8,12,-58.68,-3.42,50.12
-368,-7426,5012,-60,-9,9,-59.53,-3.47,49.11
-333,-7618,4771,-52,-9,6,-60.29,-3.48,48.18
-291,-7732,4578,-44,-7,2,-60.95,-3.45,47.41
-408,-7876,4704,-33,-11,2,-61.46,-3.41,46.77
-552,-8036,4959,-7,-51,4,-61.55,-3.22,46.02
-360,-7983,4644,6,-48,4,-61.44,-2.92,45.30
-234,-7892,4517,2,-17,3,-61.39,-2.77,44.97
-221,-7807,4694,-3,-13,0,-61.37,-2.69,44.81
-106,-7717,4672,-5,-19,-2,-61.37,-2.54,44.57
45,-7602,4507,-7,-10,-3,-61.44,-2.40,44.38
123,-7496,4445,-6,-3,-3,-61.52,-2.29,44.32
167,-7428,4377,-1,2,-2,-61.53,-2.25,44.36
219,-7410,4281,6,9,-2,-61.46,-2.24,44.56
227,-7447,4254,13,13,-4,-61.30,-2.26,44.94
78,-7560,4314,26,11,-5,-60.99,-2.27,45.49
-107,-7770,4454,48,5,-3,-60.40,-2.29,46.17
-301,-8082,4755,80,-1,-2,-59.39,-2.29,47.13
-466,-8325,5309,112,-14,-2,-57.88,-2.23,48.29
-509,-8249,5889,127,-40,-1,-56.03,-1.99,49.32
-412,-7924,6116,119,-60,0,-54.20,-1.55,49.99
-238,-7520,5974,100,-62,-1,-52.65,-1.01,50.32
-22,-7167,5643,79,-46,-4,-51.44,-0.52,50.59
172,-6973,5234,67,-22,-9,-50.49,-0.16,50.99
277,-6960,4870,72,-3,-14,-49.57,0.07,51.64
286,-7019,4658,93,8,-17,-48.44,0.20,52.56
255,-7017,4721,120,10,-14,-46.94,0.26,53.67
196,-6800,5154,141,4,-10,-45.06,0.30,54.79
123,-6302,5840,143,-9,-5,-42.99,0.40,55.75
100,-5650,6518,126,-20,-2,-41.02,0.60,56.44
124,-5038,6902,98,-30,1,-39.39,0.88,56.84
1191,74,8187,4,-2,-1,-0.16,8.58,65.18
1187,110,8197,4,-3,0,-0.09,8.61,65.18
1190,133,8190,3,-3,1,-0.03,8.65,65.17
1196,136,8177,2,-2,0,0.02,8.67,65.16
1194,127,8150,1,-1,-1,0.05,8.67,65.17
1206,122,8124,0,0,-2,0.08,8.67,65.19
1227,118,8101,1,1,-3,0.10,8.65,65.21
1234,116,8082,1,2,-3,0.13,8.62,65.24
1238,110,8073,2,2,-2,0.18,8.59,65.27
1239,104,8078,4,1,-2,0.23,8.57,65.29
1235,104,8087,4,0,-2,0.31,8.56,65.31
1231,104,8103,4,-1,-2,0.38,8.56,65.32
1228,101,8113,2,-1,-1,0.43,8.57,65.34
1224,90,8109,0,-1,-1,0.44,8.57,65.35
1199,69,8091,-4,-1,-1,0.41,8.58,65.36
1175,15,8065,-8,-2,-1,0.32,8.59,65.37
1145,-44,8019,-11,-3,-2,0.17,8.60,65.40
1108,-110,7955,-15,-5,-4,-0.03,8.65,65.44
1136,-156,7885,-19,-5,-5,-0.27,8.72,65.50
1186,-186,7820,-24,-2,-6,-0.58,8.76,65.59
1212,-212,7789,-32,1,-7,-1.00,8.75,65.69
1238,-236,7755,-43,5,-8,-1.55,8.69,65.79
1269,-276,7712,-58,9,-9,-2.28,8.58,65.91
1270,-327,7664,-75,15,-11,-3.24,8.40,66.07
1248,-363,7620,-94,23,-14,-4.45,8.13,66.25
1215,-429,7622,-113,30,-16,-5.91,7.75,66.45
1174,-535,7603,-132,35,-18,-7.64,7.31,66.68
1140,-704,7471,-151,36,-19,-9.63,6.85,66.90
1078,-925,7194,-165,40,-19,-11.86,6.37,67.12
1019,-1253,6826,-169,48,-20,-14.20,5.81,67.32
927,-1673,6579,-161,59,-21,-16.48,5.14,67.57
803,-2098,6624,-145,66,-20,-18.58,4.35,67.86
686,-2455,6929,-131,59,-16,-20.46,3.59,68.11
542,-2757,7308,-121,41,-10,-22.18,3.03,68.24
360,-3000,7635,-115,22,-4,-23.79,2.69,68.22
223,-3183,7802,-114,8,-2,-25.36,2.52,68.07
125,-3337,7796,-117,1,-4,-26.98,2.48,67.86
57,-3488,7632,-122,1,-5,-28.65,2.47,67.62
48,-3665,7389,-124,8,-5,-30.38,2.40,67.39
39,-3854,7151,-122,18,-5,-32.09,2.21,67.21
1,-4060,6888,-115,22,-4,-33.75,1.97,67.05
-62,-4262,6700,-103,26,-4,-35.25,1.68,66.93
-116,-4422,6687,-90,27,-2,-36.56,1.36,66.85
-140,-4544,6751,-81,15,0,-37.69,1.12,66.71
-180,-4664,6758,-74,1,3,-38.72,1.02,66.42
-164,-4749,6680,-72,-7,6,-39.72,0.99,65.99
-66,-4817,6547,-76,-6,7,-40.74,0.99,65.50
11,-4882,6429,-82,1,7,-41.84,0.93,65.04
81,-4972,6316,-89,7,6,-43.04,0.80,64.58
104,-5089,6181,-94,11,5,-44.32,0.65,64.15
105,-5217,6007,-95,14,4,-45.64,0.47,63.72
69,-5343,5833,-92,16,4,-46.94,0.27,63.30
22,-5471,5721,-86,17,4,-48.15,0.05,62.91
-41,-5553,5716,-80,19,6,-49.26,-0.20,62.54
-90,-5627,5785,-78,15,9,-50.31,-0.45,62.13
-128,-5745,5833,-78,7,11,-51.35,-0.66,61.57
-144,-5931,5765,-78,-1,12,-52.40,-0.82,60.84
-148,-6161,5594,-75,-3,11,-53.44,-0.93,60.05
-115,-6347,5405,-70,0,9,-54.43,-1.04,59.30
-92,-6443,5253,-66,4,6,-55.36,-1.15,58.64
-92,-6485,5168,-64,7,6,-56.23,-1.27,58.08
-112,-6566,5140,-61,4,8,-57.06,-1.40,57.48
-107,-6698,5092,-56,1,11,-57.83,-1.53,56.81
-115,-6833,5037,-51,-2,11,-58.54,-1.66,56.09
-116,-6955,4973,-47,-6,11,-59.18,-1.75,55.35
-109,-7028,4903,-43,-9,10,-59.76,-1.81,54.60
-97,-7084,4821,-41,-10,10,-60.30,-1.87,53.84
-75,-7170,4745,-37,-10,12,-60.80,-1.93,53.08
-61,-7283,4691,-34,-7,13,-61.27,-2.02,52.36
-63,-7436,4676,-32,-5,13,-61.69,-2.14,51.71
-64,-7600,4692,-29,-2,12,-62.07,-2.26,51.13
-92,-7695,4745,-27,-2,10,-62.42,-2.38,50.62
-68,-7765,4732,-25,-5,8,-62.74,-2.44,50.13
-53,-7852,4663,-21,-6,6,-63.01,-2.48,49.66
-56,-7939,4586,-14,-6,6,-63.21,-2.49,49.29
-76,-8029,4512,-5,-7,4,-63.30,-2.50,49.01
-109,-8088,4520,6,-11,3,-63.24,-2.47,48.87
-96,-8139,4559,16,-17,1,-63.01,-2.38,48.82
-53,-8185,4553,26,-25,-1,-62.63,-2.22,48.83
37,-8237,4455,36,-28,-3,-62.15,-2.00,48.90
146,-8273,4306,47,-23,-5,-61.55,-1.74,49.18
154,-8240,4319,60,-13,-8,-60.77,-1.53,49.77
163,-8134,4519,72,-10,-10,-59.79,-1.32,50.64
115,-7949,4884,82,-12,-9,-58.62,-1.12,51.59
121,-7626,5332,83,-20,-5,-57.35,-0.91,52.44
211,-7298,5538,73,-31,-1,-56.17,-0.65,52.95
283,-7126,5440,63,-27,2,-55.19,-0.42,53.26
319,-7176,5217,62,-12,1,-54.31,-0.29,53.63
279,-7353,5043,73,1,-3,-53.37,-0.24,54.25
172,-7538,4994,92,1,-7,-52.21,-0.19,55.10
87,-7651,5016,113,-8,-9,-50.76,-0.06,56.00
6,-7662,5183,133,-18,-10,-49.01,0.17,56.91
-54,-7490,5485,146,-32,-11,-47.02,0.52,57.74
21,-7096,5840,151,-40,-13,-44.90,1.01,58.48
79,-6536,6219,145,-38,-14,-42.79,1.53,59.19
153,-5948,6519,130,-38,-12,-40.83,2.03,59.78
227,-5451,6624,114,-38,-11,-39.09,2.53,60.23
312,-5169,6564,104,-37,-11,-37.57,3.04,60.58
398,-5021,6474,102,-33,-11,-36.13,3.50,60.92
1226,533,7816,2,1,0,3.61,8.16,68.13
1239,534,7797,1,3,0,3.64,8.13,68.12
1235,539,7802,1,3,0,3.67,8.09,68.11
1233,545,7820,2,3,-1,3.70,8.05,68.10
1220,559,7854,2,4,-1,3.74,8.00,68.11
1208,570,7886,3,4,-1,3.79,7.94,68.11
1199,574,7909,4,4,-1,3.86,7.88,68.11
1193,572,7924,4,4,0,3.93,7.82,68.10
1186,560,7930,4,5,0,4.00,7.75,68.09
1183,555,7953,4,7,-1,4.06,7.66,68.07
1171,549,7985,3,8,-1,4.11,7.55,68.06
1137,530,8011,3,5,-1,4.16,7.45,68.05
1107,508,8018,5,2,0,4.22,7.40,68.04
1091,486,8002,7,2,0,4.30,7.37,68.02
1075,458,7961,8,4,0,4.40,7.32,68.01
1058,447,7913,7,6,-1,4.50,7.23,67.99
1044,467,7887,6,10,-2,4.59,7.10,67.99
1024,482,7861,5,12,-3,4.66,6.94,68.00
1019,497,7872,5,14,-3,4.73,6.74,68.01
1012,506,7888,4,17,-3,4.79,6.51,68.02
989,508,7931,3,18,-2,4.84,6.26,68.02
986,539,8005,1,21,-3,4.86,5.97,68.01
949,576,8083,-4,23,-3,4.83,5.64,68.01
887,592,8151,-10,24,-4,4.72,5.30,68.03
837,626,8166,-17,24,-5,4.52,4.96,68.06
796,647,8111,-27,25,-7,4.19,4.60,68.13
747,696,7997,-37,26,-9,3.74,4.22,68.22
716,753,7842,-49,30,-11,3.13,3.81,68.36
697,781,7672,-63,36,-13,2.34,3.32,68.51
673,772,7557,-77,44,-14,1.37,2.74,68.69
604,725,7544,-90,51,-14,0.20,2.05,68.87
499,631,7673,-100,55,-12,-1.13,1.29,69.04
340,473,7901,-106,54,-9,-2.56,0.52,69.17
157,241,8127,-110,46,-5,-4.08,-0.18,69.25
-20,-24,8247,-112,35,-2,-5.62,-0.72,69.28
-149,-306,8237,-112,27,-2,-7.19,-1.14,69.28
-237,-586,8180,-112,27,-4,-8.76,-1.52,69.29
-323,-819,8117,-112,28,-5,-10.33,-1.93,69.31
-403,-1024,8028,-113,26,-5,-11.91,-2.31,69.33
-443,-1200,7954,-112,28,-4,-13.47,-2.69,69.34
-510,-1405,7944,-110,30,-2,-15.01,-3.11,69.32
-595,-1684,8052,-109,27,2,-16.54,-3.51,69.27
-683,-2025,8261,-108,21,4,-18.06,-3.86,69.13
-757,-2371,8463,-110,13,4,-19.59,-4.11,68.94
-838,-2663,8570,-115,3,2,-21.17,-4.22,68.72
-877,-2893,8482,-122,-8,-2,-22.86,-4.17,68.45
-884,-3073,8058,-128,-16,-6,-24.63,-3.99,68.15
-800,-3211,7416,-124,-13,-11,-26.42,-3.76,67.89
-675,-3353,6851,-114,1,-13,-28.10,-3.66,67.73
-583,-3498,6621,-102,17,-8,-29.62,-3.76,67.66
-520,-3631,6754,-93,21,0,-30.96,-4.00,67.55
-508,-3756,7072,-88,11,8,-32.17,-4.20,67.29
-547,-3879,7413,-90,-4,13,-33.35,-4.30,66.83
-569,-4021,7602,-97,-20,14,-34.59,-4.24,66.16
-574,-4204,7542,-107,-34,13,-35.98,-4.01,65.30
-538,-4437,7240,-115,-36,11,-37.52,-3.70,64.33
-477,-4689,6757,-119,-28,8,-39.17,-3.45,63.36
-450,-4967,6239,-118,-15,5,-40.87,-3.31,62.49
-471,-5238,5845,-109,-1,3,-42.49,-3.31,61.78
-523,-5424,5682,-96,7,2,-43.93,-3.41,61.22
-564,-5547,5732,-85,5,4,-45.17,-3.51,60.69
-614,-5624,5881,-79,-2,7,-46.26,-3.60,60.10
-643,-5736,5949,-78,-12,11,-47.31,-3.63,59.34
-672,-5937,5889,-78,-16,12,-48.36,-3.63,58.42
-663,-6171,5721,-79,-16,9,-49.45,-3.60,57.49
-589,-6407,5451,-81,-13,4,-50.60,-3.54,56.58
-513,-6599,5137,-82,-6,-2,-51.79,-3.46,55.78
-481,-6725,4846,-78,4,-7,-52.96,-3.42,55.15
-451,-6783,4670,-72,12,-8,-54.04,-3.42,54.69
-421,-6748,4637,-63,18,-8,-54.98,-3.47,54.38
-409,-6686,4676,-56,15,-6,-55.79,-3.53,54.13
-382,-6669,4712,-49,9,-3,-56.49,-3.57,53.83
-352,-6684,4701,-44,5,-2,-57.09,-3.58,53.48
-325,-6705,4658,-41,5,-2,-57.65,-3.59,53.14
-315,-6736,4639,-40,6,-2,-58.20,-3.61,52.82
-320,-6789,4674,-39,8,-1,-58.73,-3.65,52.52
-329,-6866,4712,-38,8,-1,-59.23,-3.69,52.24
-342,-6997,4716,-35,7,-1,-59.71,-3.73,51.95
-380,-7135,4716,-28,6,-2,-60.12,-3.75,51.73
-403,-7263,4718,-19,5,-3,-60.40,-3.75,51.61
-434,-7368,4749,-7,1,-5,-60.52,-3.71,51.60
-437,-7440,4797,5,-5,-5,-60.46,-3.63,51.67
-358,-7496,4811,14,-9,-5,-60.26,-3.51,51.79
-273,-7545,4773,21,-8,-5,-59.96,-3.37,51.99
-239,-7586,4751,29,-4,-5,-59.57,-3.26,52.32
-217,-7548,4826,36,-1,-5,-59.06,-3.18,52.81
-176,-7436,4946,39,1,-5,-58.48,-3.11,53.36
-168,-7299,5129,39,4,-3,-57.88,-3.08,53.96
-173,-7168,5296,36,4,-1,-57.29,-3.08,54.50
-179,-7117,5360,35,2,0,-56.74,-3.10,54.96
-205,-7142,5365,42,3,0,-56.14,-3.11,55.43
-277,-7248,5368,57,2,0,-55.38,-3.14,56.01
-406,-7440,5359,80,-4,0,-54.34,-3.14,56.70
-545,-7677,5426,113,-15,0,-52.89,-3.07,57.49
-583,-7691,5607,140,-30,-1,-51.01,-2.87,58.26
-454,-7393,5770,147,-39,-3,-48.91,-2.52,58.96
-302,-6842,5875,135,-36,-4,-46.91,-2.13,59.56
-161,-6185,5947,113,-23,-2,-45.16,-1.83,60.12
-75,-5662,5974,91,-6,0,-43.74,-1.71,60.61
826,519,7962,3,-4,-1,4.19,5.87,70.18
827,525,7955,4,-4,-2,4.25,5.92,70.20
830,553,7936,3,-3,-2,4.31,5.95,70.22
841,598,7919,3,-3,-2,4.37,5.99,70.25
839,634,7919,2,-2,-2,4.41,6.01,70.27
834,641,7944,1,-2,-1,4.44,6.03,70.28
820,615,7957,1,-4,-1,4.46,6.07,70.29
802,573,7955,0,-6,-1,4.46,6.14,70.31
797,524,7948,-1,-7,-2,4.45,6.21,70.34
802,473,7948,-3,-7,-4,4.41,6.30,70.39
813,430,7941,-7,-6,-6,4.33,6.37,70.46
810,425,7936,-13,-4,-8,4.17,6.42,70.58
800,444,7912,-23,-3,-10,3.91,6.44,70.71
825,459,7908,-37,-1,-12,3.47,6.43,70.88
909,442,7993,-53,6,-14,2.81,6.37,71.08
929,421,8119,-72,10,-17,1.90,6.24,71.31
847,351,8166,-93,6,-19,0.70,6.12,71.57
798,235,8090,-111,2,-21,-0.75,6.05,71.87
808,113,7913,-125,7,-25,-2.41,5.98,72.20
778,-33,7688,-134,13,-27,-4.21,5.84,72.55
740,-168,7436,-137,18,-27,-6.08,5.62,72.92
720,-296,7105,-136,22,-26,-7.94,5.37,73.25
741,-438,6839,-130,31,-22,-9.73,5.03,73.56
746,-619,6788,-122,38,-16,-11.42,4.58,73.80
710,-839,6980,-115,38,-6,-13.01,4.07,73.93
630,-1077,7273,-112,31,2,-14.55,3.61,73.93
524,-1390,7553,-115,23,7,-16.12,3.23,73.82
408,-1753,7840,-122,24,8,-17.79,2.87,73.65
290,-2135,8109,-132,23,4,-19.59,2.50,73.51
159,-2509,8270,-141,18,-1,-21.53,2.21,73.40
70,-2794,8256,-149,12,-5,-23.58,2.01,73.30
47,-2977,8057,-154,10,-7,-25.71,1.90,73.20
67,-3080,7770,-157,11,-6,-27.87,1.78,73.05
108,-3188,7463,-155,13,-2,-30.03,1.63,72.85
148,-3379,7195,-148,16,3,-32.12,1.44,72.58
199,-3662,6983,-138,16,9,-34.08,1.19,72.25
185,-3982,6840,-127,12,14,-35.90,0.93,71.82
130,-4313,6773,-119,7,16,-37.59,0.69,71.29
81,-4575,6803,-115,3,17,-39.21,0.49,70.69
65,-4775,6801,-118,-4,16,-40.82,0.36,70.01
64,-4942,6650,-122,-8,15,-42.49,0.28,69.23
38,-5107,6375,-125,-6,14,-44.23,0.20,68.40
35,-5301,6042,-122,-2,14,-45.96,0.08,67.56
25,-5564,5747,-113,1,14,-47.59,-0.07,66.75
-30,-5842,5579,-99,3,15,-49.06,-0.26,65.97
-37,-6067,5491,-86,-2,13,-50.31,-0.43,65.22
-23,-6210,5413,-73,-6,11,-51.39,-0.51,64.47
0,-6307,5319,-65,-5,10,-52.32,-0.58,63.78
29,-6394,5268,-61,-1,10,-53.17,-0.68,63.15
54,-6452,5293,-60,3,10,-53.99,-0.80,62.60
101,-6517,5275,-63,2,9,-54.83,-0.92,62.02
101,-6623,5182,-62,2,8,-55.69,-1.02,61.41
93,-6744,5113,-57,4,8,-56.50,-1.14,60.84
73,-6847,5103,-50,6,8,-57.20,-1.26,60.35
19,-6910,5193,-45,7,8,-57.81,-1.41,59.93
-22,-6934,5288,-42,2,9,-58.34,-1.55,59.49
-60,-7009,5228,-40,-5,11,-58.86,-1.65,58.91
-73,-7150,5035,-32,-7,11,-59.31,-1.74,58.29
-75,-7326,4887,-21,-5,10,-59.65,-1.83,57.79
-65,-7441,4896,-14,-3,9,-59.85,-1.92,57.46
-25,-7488,4973,-13,-3,8,-59.99,-1.99,57.18
-20,-7541,5030,-13,-3,7,-60.12,-2.04,56.91
-32,-7620,5037,-9,-3,6,-60.22,-2.10,56.69
-63,-7717,4999,1,-5,5,-60.23,-2.12,56.54
-118,-7842,4961,17,-9,3,-60.03,-2.11,56.52
-180,-7988,4850,39,-16,1,-59.55,-2.04,56.64
-236,-8187,4743,67,-19,-1,-58.73,-1.92,56.96
-235,-8367,4765,98,-21,-2,-57.49,-1.76,57.59
-160,-8424,4893,127,-25,-3,-55.83,-1.54,58.41
-146,-8266,5004,149,-29,-2,-53.82,-1.28,59.31
-123,-7950,5111,164,-34,-2,-51.58,-0.99,60.18
-33,-7465,5258,170,-34,0,-49.20,-0.68,60.99
52,-6905,5451,167,-30,2,-46.80,-0.39,61.73
88,-6419,5683,160,-24,5,-44.48,-0.17,62.36
92,-6083,5993,154,-17,5,-42.26,-0.03,62.95
43,-5906,6381,155,-16,3,-40.05,0.09,63.52
-42,-5805,6836,161,-24,0,-37.77,0.30,64.03
-116,-5684,7226,168,-41,-2,-35.40,0.68,64.43
-96,-5482,7456,173,-56,-4,-32.97,1.29,64.70
-3,-5174,7526,171,-62,-7,-30.55,2.04,64.94
130,-4792,7458,162,-60,-10,-28.24,2.84,65.17
311,-4395,7270,148,-51,-12,-26.12,3.59,65.42
488,-3989,7067,132,-36,-15,-24.21,4.19,65.72
624,-3602,6911,117,-18,-16,-22.50,4.58,66.11
705,-3279,6870,103,-4,-17,-20.99,4.78,66.50
719,-2986,6974,92,2,-15,-19.62,4.84,66.88
720,-2738,7099,85,1,-12,-18.36,4.87,67.19
729,-2558,7166,79,0,-11,-17.20,4.91,67.46
692,-2464,7236,77,1,-9,-16.10,4.93,67.69
600,-2453,7373,79,-1,-7,-15.00,4.94,67.89
501,-2464,7513,83,-10,-6,-13.86,5.02,68.04
447,-2423,7582,86,-19,-6,-12.69,5.23,68.15
421,-2331,7528,86,-23,-7,-11.50,5.52,68.25
415,-2228,7389,83,-23,-10,-10.34,5.84,68.38
448,-2104,7231,77,-16,-12,-9.25,6.09,68.55
535,-1960,7180,71,-4,-14,-8.24,6.21,68.77
584,-1778,7238,64,6,-15,-7.32,6.18,69.00
598,-1587,7370,57,10,-15,-6.48,6.06,69.22
613,-1400,7539,52,10,-13,-5.71,5.92,69.43
804,531,8227,0,-3,0,2.30,5.77,71.47
794,490,8248,1,-5,0,2.33,5.81,71.46
785,456,8229,1,-7,-1,2.34,5.88,71.48
802,445,8174,1,-7,-2,2.37,5.97,71.51
833,456,8111,1,-6,-3,2.40,6.06,71.54
857,484,8028,0,-5,-2,2.42,6.13,71.58
871,508,7960,-1,-4,-2,2.44,6.19,71.60
885,522,7928,-2,-3,-1,2.44,6.23,71.61
891,522,7935,-3,-1,-1,2.41,6.24,71.62
879,501,7974,-4,-1,-1,2.38,6.25,71.63
860,455,8016,-5,-2,-1,2.32,6.26,71.65
844,405,8029,-5,-2,-2,2.27,6.27,71.67
838,357,8014,-6,-3,-3,2.18,6.30,71.70
841,314,7961,-8,-3,-3,2.08,6.34,71.75
850,268,7927,-11,-2,-3,1.94,6.37,71.78
836,214,7881,-15,-2,-3,1.75,6.39,71.83
861,173,7846,-22,1,-3,1.46,6.38,71.87
873,115,7844,-32,6,-5,1.06,6.31,71.93
865,40,7905,-45,11,-7,0.48,6.16,72.02
849,-62,8016,-59,14,-10,-0.28,5.97,72.14
817,-170,8107,-74,15,-13,-1.26,5.75,72.30
782,-264,8106,-91,16,-18,-2.46,5.53,72.53
758,-349,8059,-105,20,-22,-3.86,5.27,72.80
732,-432,8027,-115,24,-24,-5.40,4.97,73.12
660,-537,8008,-119,25,-23,-7.01,4.64,73.42
569,-666,7965,-114,21,-20,-8.59,4.34,73.69
476,-819,7890,-105,17,-16,-10.06,4.11,73.89
397,-1025,7828,-93,13,-11,-11.39,3.92,74.03
323,-1230,7826,-83,8,-7,-12.57,3.78,74.10
286,-1421,7836,-78,2,-4,-13.66,3.73,74.10
270,-1570,7812,-80,0,-3,-14.76,3.71,74.07
232,-1691,7775,-88,1,-3,-15.95,3.68,74.04
237,-1825,7707,-100,5,-5,-17.29,3.62,74.00
259,-1949,7610,-112,10,-7,-18.80,3.51,74.01
295,-2086,7474,-122,13,-9,-20.44,3.37,74.03
339,-2229,7291,-124,15,-9,-22.15,3.21,74.05
382,-2398,7098,-121,17,-7,-23.84,3.04,74.05
421,-2608,6949,-111,18,-4,-25.42,2.84,74.03
452,-2815,6890,-100,18,1,-26.86,2.61,73.95
461,-3016,6914,-92,13,6,-28.16,2.40,73.81
393,-3236,7056,-88,10,11,-29.38,2.20,73.57
338,-3438,7290,-90,4,14,-30.61,2.02,73.22
325,-3624,7501,-98,-2,14,-31.91,1.91,72.80
344,-3804,7570,-111,-5,12,-33.37,1.86,72.33
330,-3996,7465,-122,-2,10,-35.01,1.80,71.83
299,-4211,7258,-127,4,8,-36.76,1.70,71.37
259,-4444,7016,-123,8,6,-38.49,1.55,70.95
171,-4728,6759,-107,6,8,-40.06,1.39,70.52
80,-5044,6586,-86,3,10,-41.35,1.24,70.07
17,-5303,6588,-65,-2,13,-42.34,1.10,69.60
13,-5490,6716,-54,-12,15,-43.12,1.04,69.07
58,-5572,6865,-51,-20,16,-43.79,1.05,68.43
101,-5600,6889,-57,-26,17,-44.51,1.12,67.67
214,-5670,6667,-67,-28,16,-45.40,1.24,66.80
307,-5768,6264,-76,-21,12,-46.44,1.35,65.96
375,-5883,5792,-79,-8,7,-47.58,1.39,65.25
439,-5960,5396,-77,4,2,-48.71,1.35,64.76
472,-5998,5139,-68,14,2,-49.73,1.24,64.41
475,-5989,5092,-61,19,6,-50.61,1.05,64.18
418,-6012,5255,-56,19,10,-51.38,0.77,63.97
329,-6071,5467,-54,11,13,-52.08,0.51,63.63
294,-6214,5550,-54,0,13,-52.79,0.34,63.13
309,-6435,5441,-52,-6,11,-53.52,0.26,62.49
314,-6675,5222,-47,-5,8,-54.21,0.22,61.91
330,-6854,5023,-41,2,4,-54.83,0.17,61.48
316,-6951,4907,-35,9,0,-55.35,0.10,61.26
257,-6958,4913,-28,13,-1,-55.77,0.02,61.20
203,-6930,5010,-22,12,1,-56.06,-0.09,61.21
155,-6928,5124,-16,6,3,-56.26,-0.19,61.17
126,-6999,5217,-9,1,5,-56.37,-0.28,61.07
131,-7130,5261,-1,-2,6,-56.38,-0.33,60.96
154,-7270,5243,7,-5,4,-56.29,-0.35,60.90
154,-7401,5187,17,-4,1,-56.09,-0.34,60.94
135,-7518,5189,31,-3,-2,-55.71,-0.29,61.14
86,-7609,5284,49,-5,-4,-55.10,-0.23,61.51
39,-7653,5437,68,-12,-6,-54.20,-0.10,61.97
39,-7631,5578,84,-21,-6,-53.05,0.11,62.43
127,-7403,5674,90,-25,-6,-51.77,0.39,62.84
304,-7005,5690,82,-22,-6,-50.55,0.68,63.22
459,-6580,5626,68,-11,-4,-49.50,0.89,63.60
556,-6269,5601,61,5,-3,-48.58,0.95,64.07
551,-6115,5678,63,17,-3,-47.67,0.87,64.70
424,-6105,5857,78,18,-1,-46.60,0.72,65.37
190,-6194,6137,105,9,1,-45.21,0.57,66.03
-99,-6279,6556,138,-12,4,-43.36,0.55,66.58
-272,-6289,6995,165,-42,6,-41.09,0.78,66.88
-218,-6126,7233,176,-67,5,-38.61,1.36,66.93
-58,-5806,7237,169,-74,2,-36.20,2.13,66.90
135,-5382,7092,149,-63,-1,-34.03,2.89,66.90
321,-4948,6902,125,-44,-5,-32.19,3.51,67.01
457,-4567,6693,102,-22,-9,-30.68,3.91,67.24
517,-4265,6568,86,-2,-11,-29.41,4.07,67.59
497,-4059,6604,79,10,-8,-28.27,4.03,67.96
427,-3969,6764,80,8,-3,-27.14,3.92,68.27
352,-3970,6972,87,-4,1,-25.96,3.90,68.45
335,-3963,7159,96,-17,1,-24.67,4.04,68.55
336,-3882,7247,103,-26,-1,-23.27,4.32,68.63
395,-3775,7293,107,-29,-4,-21.81,4.69,68.72
469,-3652,7390,108,-29,-7,-20.32,5.09,68.85
908,658,8157,5,-5,-1,4.05,6.67,73.23
933,663,8134,8,-5,-1,4.17,6.74,73.24
950,672,8110,10,-6,-1,4.32,6.80,73.25
979,705,8064,12,-7,-1,4.49,6.90,73.26
1008,755,7997,12,-5,-1,4.69,6.97,73.28
1039,812,7970,12,-3,-2,4.88,7.02,73.30
1058,862,7960,10,-3,-2,5.06,7.06,73.31
1090,893,7938,9,-3,-1,5.22,7.10,73.33
1117,914,7927,8,0,-2,5.36,7.11,73.34
1114,927,7925,8,1,-2,5.50,7.11,73.36
1107,943,7937,9,0,-2,5.65,7.10,73.38
1106,979,7991,11,2,-2,5.82,7.08,73.39
1085,1024,8077,14,-1,-2,6.03,7.07,73.41
1069,1077,8134,17,-5,-1,6.29,7.12,73.40
1053,1120,8135,19,-8,1,6.58,7.21,73.40
1042,1143,8087,21,-10,1,6.88,7.34,73.38
1071,1180,8026,21,-8,1,7.20,7.46,73.36
1085,1230,8007,20,-3,1,7.51,7.54,73.33
1078,1293,8027,16,1,1,7.77,7.53,73.30
1049,1350,8050,11,1,2,7.97,7.50,73.25
1021,1380,8044,4,1,2,8.08,7.48,73.20
999,1365,8021,-5,2,3,8.05,7.46,73.16
977,1316,7985,-15,2,2,7.88,7.43,73.12
963,1249,7913,-27,2,1,7.55,7.39,73.11
956,1160,7823,-41,4,-1,7.04,7.34,73.12
953,1043,7762,-54,7,-3,6.32,7.23,73.17
942,895,7714,-66,7,-5,5.45,7.11,73.24
960,710,7662,-74,6,-6,4.44,7.00,73.33
978,495,7616,-80,7,-5,3.32,6.90,73.42
967,290,7585,-84,7,-4,2.14,6.80,73.49
929,91,7547,-90,6,-3,0.89,6.71,73.54
873,-112,7503,-97,5,-3,-0.46,6.63,73.59
810,-283,7459,-108,4,-4,-1.96,6.56,73.64
760,-421,7365,-125,3,-7,-3.65,6.51,73.71
704,-535,7190,-144,3,-10,-5.59,6.46,73.80
691,-642,7010,-160,9,-13,-7.76,6.36,73.92
688,-746,6860,-171,14,-15,-10.10,6.19,74.06
665,-907,6728,-172,13,-13,-12.47,6.03,74.17
686,-1151,6646,-161,14,-6,-14.76,5.87,74.19
694,-1476,6705,-142,15,3,-16.81,5.65,74.10
679,-1859,6840,-120,9,11,-18.59,5.45,73.86
660,-2218,7001,-102,3,17,-20.12,5.30,73.52
662,-2523,7121,-91,-2,19,-21.47,5.20,73.13
654,-2750,7255,-90,1,19,-22.76,5.09,72.72
611,-2919,7437,-96,8,19,-24.09,4.88,72.33
623,-3065,7582,-108,13,17,-25.56,4.62,71.95
615,-3201,7648,-121,19,14,-27.18,4.30,71.63
544,-3358,7555,-128,20,11,-28.93,3.95,71.32
502,-3622,7347,-124,20,11,-30.68,3.61,71.01
481,-3989,7158,-110,23,12,-32.29,3.26,70.72
441,-4398,7114,-92,22,14,-33.68,2.88,70.43
372,-4758,7228,-74,16,15,-34.80,2.54,70.12
329,-5036,7394,-61,6,15,-35.71,2.30,69.77
352,-5173,7548,-57,1,13,-36.52,2.15,69.41
375,-5192,7641,-62,-2,11,-37.33,2.08,69.04
386,-5195,7670,-73,-1,10,-38.27,2.00,68.64
380,-5260,7613,-83,4,9,-39.37,1.88,68.25
357,-5388,7509,-90,10,7,-40.58,1.71,67.90
308,-5543,7402,-91,14,4,-41.83,1.52,67.60
241,-5716,7296,-87,14,2,-43.05,1.34,67.32
181,-5897,7213,-79,10,0,-44.17,1.21,67.06
131,-6022,7122,-69,3,-2,-45.15,1.15,66.79
120,-6078,6972,-62,-5,-3,-46.01,1.19,66.48
170,-6092,6744,-59,-10,-3,-46.82,1.30,66.11
230,-6081,6506,-55,-9,-3,-47.59,1.42,65.74
302,-6039,6295,-52,-7,-1,-48.30,1.51,65.37
367,-6010,6083,-50,-5,0,-48.99,1.57,65.02
411,-6019,5893,-49,-2,2,-49.65,1.58,64.66
456,-6051,5707,-48,0,3,-50.31,1.57,64.32
468,-6114,5509,-46,1,4,-50.96,1.52,63.97
492,-6148,5342,-45,5,5,-51.60,1.46,63.65
516,-6141,5264,-46,10,5,-52.22,1.33,63.40
515,-6146,5243,-48,12,6,-52.86,1.18,63.15
489,-6165,5223,-48,13,8,-53.50,0.99,62.90
446,-6199,5197,-48,15,9,-54.15,0.78,62.65
379,-6261,5185,-46,16,10,-54.76,0.53,62.41
281,-6353,5185,-40,14,11,-55.31,0.29,62.17
188,-6464,5209,-33,9,12,-55.76,0.06,61.90
128,-6592,5220,-27,5,13,-56.12,-0.15,61.60
67,-6733,5198,-22,0,15,-56.41,-0.35,61.23
20,-6876,5128,-20,-2,15,-56.67,-0.52,60.82
-16,-7001,5043,-18,0,13,-56.92,-0.69,60.47
-70,-7083,4999,-14,3,11,-57.13,-0.85,60.20
-109,-7139,4983,-9,3,9,-57.26,-1.00,60.04
-139,-7221,4962,-2,-1,9,-57.29,-1.12,59.89
-157,-7320,4903,8,-3,9,-57.20,-1.21,59.79
-188,-7417,4787,19,-5,7,-56.98,-1.27,59.75
-222,-7510,4657,35,-5,3,-56.57,-1.30,59.88
-246,-7600,4621,54,-4,0,-55.91,-1.29,60.23
-300,-7656,4695,72,-8,-2,-54.99,-1.24,60.74
-320,-7642,4816,87,-13,-4,-53.83,-1.12,61.29
-274,-7490,4994,99,-15,-5,-52.49,-0.96,61.92
-179,-7180,5192,102,-16,-6,-51.04,-0.77,62.53
-48,-6796,5359,97,-16,-4,-49.62,-0.57,63.09
87,-6398,5474,90,-11,-2,-48.28,-0.42,63.59
181,-6056,5492,83,-6,0,-47.05,-0.32,64.05
229,-5864,5466,81,2,1,-45.89,-0.32,64.52
195,-5837,5531,88,6,3,-44.68,-0.38,65.02
89,-5932,5750,103,1,5,-43.29,-0.47,65.49
-143,991,8060,-2,1,0,5.91,-1.49,54.78
-159,981,8086,-2,0,1,5.89,-1.50,54.77
-189,963,8116,-2,0,1,5.88,-1.51,54.74
-215,931,8134,-1,-1,2,5.87,-1.50,54.71
-229,884,8136,0,-2,2,5.87,-1.49,54.69
-248,847,8133,0,-2,1,5.87,-1.47,54.66
-263,830,8139,1,-1,1,5.89,-1.47,54.64
-271,819,8150,2,0,1,5.92,-1.47,54.63
-276,816,8150,2,0,0,5.95,-1.48,54.61
-283,820,8163,2,0,0,5.98,-1.49,54.60
-283,831,8170,3,-1,0,6.02,-1.50,54.59
-276,845,8167,3,0,0,6.08,-1.50,54.58
-268,858,8163,3,0,0,6.13,-1.51,54.58
-265,867,8145,3,-2,0,6.18,-1.51,54.57
-259,868,8121,2,-4,0,6.22,-1.46,54.56
-250,848,8099,4,-6,0,6.27,-1.40,54.54
-224,814,8099,7,-7,0,6.35,-1.30,54.53
-205,781,8124,11,-11,1,6.48,-1.17,54.52
-185,746,8135,17,-17,1,6.69,-0.96,54.50
-139,754,8100,22,-22,2,6.97,-0.67,54.47
-81,828,8059,27,-23,3,7.34,-0.34,54.43
-17,946,8035,30,-22,4,7.76,-0.02,54.37
37,1053,8030,31,-21,6,8.22,0.28,54.29
67,1149,8076,31,-25,7,8.67,0.62,54.18
160,1253,8177,31,-27,8,9.13,1.01,54.07
270,1371,8272,30,-24,8,9.57,1.38,53.95
311,1440,8316,23,-22,8,9.94,1.71,53.83
288,1474,8283,8,-37,7,10.13,2.15,53.77
335,1583,8172,-20,-79,6,9.98,3.10,53.81
468,1802,7981,-58,-107,6,9.36,4.52,54.00
585,2053,7773,-98,-105,7,8.23,6.03,54.25
688,2135,7509,-137,-92,7,6.55,7.36,54.52
890,1998,7154,-173,-74,4,4.34,8.48,54.80
1311,1636,6672,-202,-23,-2,1.67,9.07,55.06
1723,1037,6134,-218,53,-14,-1.31,8.70,55.34
1800,276,5807,-224,122,-24,-4.43,7.33,55.66
1580,-499,5901,-216,163,-29,-7.52,5.26,56.05
1145,-1099,6388,-201,171,-26,-10.42,2.94,56.44
663,-1539,7080,-187,146,-19,-13.11,0.83,56.77
228,-1898,7745,-177,107,-13,-15.63,-0.76,56.96
-140,-2195,8207,-171,66,-9,-18.05,-1.79,56.98
-429,-2447,8437,-169,36,-9,-20.41,-2.38,56.85
-647,-2679,8465,-170,13,-10,-22.78,-2.62,56.59
-716,-2873,8265,-173,-5,-10,-25.17,-2.60,56.19
-664,-3054,7828,-178,-13,-10,-27.64,-2.42,55.65
-622,-3283,7260,-178,-3,-7,-30.15,-2.30,55.03
-689,-3602,6753,-172,18,-4,-32.62,-2.44,54.43
-759,-3968,6453,-162,35,0,-34.99,-2.84,53.85
-849,-4270,6427,-152,47,3,-37.19,-3.40,53.32
-941,-4554,6571,-145,51,6,-39.25,-4.05,52.79
-1103,-4885,6711,-140,46,8,-41.23,-4.68,52.19
-1318,-5276,6757,-135,36,8,-43.14,-5.22,51.49
-1461,-5668,6735,-129,21,5,-44.98,-5.59,50.67
-1517,-5974,6617,-124,4,-1,-46.73,-5.74,49.74
-1412,-6240,6272,-118,-13,-7,-48.41,-5.64,48.69
-1236,-6476,5720,-108,-18,-11,-50.01,-5.38,47.63
-1060,-6652,5201,-95,-9,-13,-51.46,-5.15,46.71
-862,-6739,4784,-79,-1,-12,-52.70,-4.98,45.98
-747,-6730,4548,-62,11,-11,-53.71,-4.91,45.51
-753,-6640,4639,-46,20,-7,-54.44,-4.97,45.29
-795,-6482,5016,-37,15,-3,-54.95,-5.09,45.13
-781,-6291,5417,-36,4,-1,-55.35,-5.15,44.91
-760,-6198,5599,-39,-7,1,-55.76,-5.13,44.50
-713,-6269,5480,-43,-10,3,-56.26,-5.08,43.93
-642,-6502,5148,-44,-10,3,-56.85,-5.04,43.27
-576,-6845,4767,-41,-5,1,-57.46,-4.99,42.66
-528,-7149,4486,-34,6,-4,-58.02,-4.98,42.25
-520,-7333,4428,-25,15,-10,-58.46,-4.97,42.15
-556,-7394,4567,-17,16,-13,-58.75,-4.94,42.29
-578,-7400,4746,-7,8,-14,-58.87,-4.86,42.50
-517,-7394,4842,4,-1,-13,-58.82,-4.70,42.76
-443,-7389,4865,16,-5,-11,-58.61,-4.52,43.08
-401,-7356,4902,29,-1,-8,-58.22,-4.38,43.52
-357,-7330,5045,41,5,-6,-57.66,-4.32,44.16
-374,-7319,5242,56,8,-6,-56.89,-4.29,44.99
-441,-7392,5416,77,5,-4,-55.85,-4.28,45.98
-515,-7547,5537,106,2,-2,-54.46,-4.28,47.13
-597,-7677,5640,140,-7,1,-52.62,-4.26,48.42
-615,-7687,5761,172,-25,4,-50.30,-4.14,49.70
-515,-7472,5894,195,-48,8,-47.59,-3.83,50.79
-325,-6982,6028,200,-63,9,-44.73,-3.31,51.64
-83,-6297,6129,185,-65,10,-41.98,-2.70,52.26
163,-5604,6208,162,-56,10,-39.53,-2.11,52.72
303,-4984,6281,137,-35,11,-37.44,-1.70,53.11
346,-4481,6436,117,-1,15,-35.64,-1.67,53.51
264,-4146,6745,108,28,18,-34.01,-2.03,53.97
16,-3990,7152,109,38,19,-32.41,-2.62,54.46
-327,-4016,7604,120,26,22,-30.69,-3.17,54.87
-641,-4151,8028,134,-1,25,-28.80,-3.47,55.11
-807,-4284,8353,144,-35,26,-26.76,-3.37,55.13
-825,-4368,8520,146,-62,24,-24.68,-2.86,55.00
-790,-4381,8456,142,-78,18,-22.68,-2.03,54.83
-720,-4303,8217,133,-81,9,-20.81,-1.07,54.72
-563,-4043,7946,122,-68,-2,-19.10,-0.14,54.74
-353,-3616,7735,110,-47,-12,-17.55,0.59,54.95
-186,-3137,7617,99,-26,-19,-16.11,1.08,55.30
-95,-2715,7583,91,-14,-19,-14.77,1.37,55.68
-25,-2362,7602,86,-12,-13,-13.51,1.57,55.99
67,-2066,7619,81,-12,-6,-12.32,1.76,56.19
418,1132,8119,1,-2,-2,7.97,2.80,58.89
424,1165,8113,1,-3,-1,8.00,2.83,58.90
430,1181,8076,2,-4,-1,8.04,2.88,58.91
442,1194,8019,2,-5,0,8.08,2.94,58.92
456,1205,7972,2,-4,0,8.12,2.99,58.91
473,1193,7947,2,-1,0,8.17,3.02,58.90
476,1173,7951,2,0,0,8.20,3.02,58.90
455,1141,7977,2,1,0,8.24,3.00,58.89
437,1106,8034,2,1,-1,8.26,2.98,58.89
418,1072,8060,2,-1,-1,8.28,2.98,58.89
401,1040,8045,3,-4,-2,8.31,3.00,58.91
404,1026,8011,4,-6,-3,8.36,3.06,58.96
425,1040,7963,6,-6,-4,8.44,3.14,59.01
448,1057,7894,7,-4,-4,8.54,3.20,59.07
455,1097,7818,7,-4,-4,8.65,3.24,59.12
465,1147,7761,6,-2,-4,8.75,3.26,59.16
479,1195,7721,5,0,-3,8.84,3.27,59.20
486,1214,7732,4,1,-3,8.92,3.25,59.23
477,1197,7777,3,0,-3,8.97,3.24,59.25
458,1167,7843,2,0,-3,8.99,3.23,59.28
448,1146,7885,0,1,-4,9.00,3.21,59.31
442,1137,7908,-4,4,-6,8.96,3.14,59.38
423,1146,7920,-10,7,-8,8.86,3.04,59.47
389,1164,7911,-20,8,-10,8.63,2.90,59.61
352,1166,7885,-32,5,-13,8.23,2.78,59.79
322,1133,7855,-45,1,-15,7.66,2.71,60.01
320,1050,7788,-55,-3,-16,6.94,2.70,60.28
343,949,7694,-61,-5,-18,6.11,2.73,60.57
397,850,7624,-64,1,-21,5.23,2.71,60.90
455,755,7570,-67,12,-24,4.33,2.56,61.25
475,692,7562,-72,26,-25,3.35,2.23,61.61
424,650,7634,-80,36,-26,2.28,1.74,61.96
361,601,7791,-92,38,-26,1.07,1.19,62.32
264,548,7985,-106,29,-26,-0.33,0.73,62.67
121,469,8217,-122,22,-24,-1.94,0.39,63.00
-6,364,8460,-139,12,-22,-3.79,0.17,63.28
-15,184,8633,-156,0,-19,-5.87,0.12,63.48
49,-85,8654,-169,-3,-16,-8.16,0.19,63.60
35,-441,8508,-174,3,-16,-10.56,0.21,63.66
-70,-902,8267,-170,9,-15,-12.97,0.12,63.69
-182,-1342,8078,-160,12,-15,-15.28,-0.01,63.70
-251,-1693,8000,-150,6,-12,-17.42,-0.10,63.65
-269,-1997,7989,-143,-4,-8,-19.45,-0.06,63.49
-279,-2223,8025,-142,-15,-3,-21.42,0.09,63.21
-257,-2367,8010,-149,-21,0,-23.45,0.33,62.78
-214,-2443,7885,-164,-18,3,-25.63,0.55,62.24
-157,-2596,7675,-182,-7,5,-28.06,0.63,61.61
-88,-2872,7431,-197,12,7,-30.74,0.48,60.94
-71,-3245,7194,-207,33,6,-33.60,0.10,60.26
-113,-3709,6944,-209,48,3,-36.53,-0.45,59.63
-223,-4187,6677,-199,56,-1,-39.39,-1.07,59.09
-388,-4640,6488,-181,53,-5,-42.03,-1.66,58.60
-505,-5001,6357,-160,37,-5,-44.37,-2.08,58.07
-594,-5275,6254,-142,16,0,-46.42,-2.32,57.33
-589,-5445,6181,-130,-1,7,-48.25,-2.43,56.34
-543,-5586,6048,-124,-13,11,-49.96,-2.46,55.12
-549,-5845,5811,-117,-19,14,-51.59,-2.46,53.73
-592,-6191,5554,-105,-19,14,-53.10,-2.49,52.31
-594,-6498,5359,-92,-14,11,-54.45,-2.52,51.00
-552,-6734,5268,-82,-16,6,-55.62,-2.50,49.84
-478,-6864,5126,-77,-24,1,-56.70,-2.37,48.69
-357,-6880,4857,-73,-28,-3,-57.72,-2.14,47.55
-302,-6942,4473,-67,-29,-2,-58.71,-1.90,46.39
-137,-6937,4061,-60,-15,-3,-59.62,-1.73,45.41
2,-6929,3811,-54,-2,-1,-60.43,-1.65,44.65
56,-6961,3773,-46,-1,3,-61.13,-1.65,43.99
5,-7004,3915,-41,-7,8,-61.70,-1.69,43.30
-23,-7107,4087,-39,-11,11,-62.20,-1.76,42.53
-34,-7314,4236,-38,-15,10,-62.70,-1.78,41.72
-30,-7551,4271,-34,-19,7,-63.16,-1.76,40.93
40,-7765,4174,-28,-19,3,-63.56,-1.68,40.22
113,-7846,4041,-23,-9,0,-63.90,-1.59,39.72
142,-7894,3972,-19,3,-2,-64.18,-1.55,39.47
135,-7908,3969,-15,11,-3,-64.40,-1.55,39.39
105,-7905,4074,-10,18,-5,-64.54,-1.59,39.54
112,-7916,4198,-5,16,-6,-64.59,-1.61,39.78
131,-7950,4280,0,14,-5,-64.57,-1.61,40.07
97,-7980,4374,6,14,-5,-64.48,-1.62,40.44
102,-8005,4467,13,5,-6,-64.28,-1.60,40.84
177,-8066,4494,20,-5,-6,-63.98,-1.48,41.22
236,-8149,4466,31,-6,-6,-63.56,-1.35,41.67
279,-8224,4450,44,-5,-5,-62.97,-1.23,42.28
266,-8209,4453,59,-6,-6,-62.18,-1.10,43.08
213,-8109,4452,76,-9,-6,-61.17,-0.95,44.03
121,-7974,4575,97,-4,-5,-59.87,-0.85,45.21
23,-7818,4908,114,0,-2,-58.27,-0.82,46.58
-104,-7604,5398,126,-4,0,-56.46,-0.82,47.97
-241,-7357,5789,129,-19,2,-54.54,-0.75,49.18
-305,-7126,5950,128,-37,1,-52.66,-0.52,50.06
-261,-6861,5956,123,-46,-2,-50.86,-0.15,50.72
-135,-6518,5814,110,-50,-6,-49.22,0.33,51.25
23,-6170,5493,93,-55,-10,-47.83,0.94,51.63
165,-5907,5030,80,-45,-13,-46.70,1.55,51.94
349,-5767,4576,77,-17,-11,-45.69,1.92,52.38
558,-5711,4324,85,15,-7,-44.60,1.97,53.06
641,-5702,4366,101,38,-2,-43.29,1.70,53.97
503,-5614,4722,117,43,5,-41.73,1.24,54.94
224,-5398,5383,123,34,13,-39.99,0.71,55.75
-19,-5091,6140,117,15,18,-38.23,0.28,56.32
709,1009,8129,3,-5,2,7.13,4.55,63.38
720,997,8079,2,-3,1,7.17,4.60,63.35
734,987,8022,0,-1,0,7.18,4.63,63.35
739,985,7985,-1,1,-1,7.17,4.62,63.35
738,996,7987,-2,3,-1,7.15,4.57,63.36
721,1021,8016,-3,4,-1,7.12,4.51,63.37
698,1042,8049,-3,3,-1,7.09,4.46,63.37
667,1043,8096,-2,2,-1,7.07,4.41,63.39
637,1032,8135,-1,0,-1,7.05,4.39,63.39
616,1024,8171,0,-1,-1,7.05,4.39,63.39
610,1027,8191,1,-2,-1,7.07,4.39,63.40
596,1034,8213,3,-3,-1,7.12,4.42,63.41
583,1034,8213,4,-5,0,7.18,4.48,63.41
583,1031,8186,5,-7,0,7.25,4.56,63.42
595,1028,8133,5,-8,0,7.32,4.66,63.42
607,1018,8042,3,-8,-1,7.38,4.76,63.43
630,1004,7969,1,-6,-2,7.41,4.85,63.46
668,1022,7939,-2,-2,-2,7.41,4.89,63.48
711,1052,7937,-6,0,-3,7.35,4.89,63.53
739,1076,7947,-11,-1,-4,7.24,4.89,63.58
772,1076,7917,-17,-2,-3,7.05,4.92,63.64
807,1052,7864,-23,0,-3,6.77,4.92,63.69
822,997,7791,-29,3,-5,6.39,4.90,63.77
799,935,7749,-37,2,-6,5.92,4.86,63.87
760,854,7708,-47,-3,-8,5.31,4.87,64.00
726,739,7654,-58,-7,-10,4.54,4.94,64.18
723,602,7592,-70,-8,-12,3.61,5.04,64.38
754,462,7573,-82,-4,-14,2.50,5.10,64.62
810,314,7628,-93,3,-17,1.25,5.08,64.87
877,192,7775,-105,13,-19,-0.16,4.95,65.14
885,118,7986,-116,20,-20,-1.72,4.70,65.42
857,76,8172,-129,19,-19,-3.43,4.44,65.68
786,54,8317,-140,17,-17,-5.29,4.21,65.91
681,5,8337,-151,9,-15,-7.31,4.06,66.07
603,-127,8195,-158,2,-12,-9.43,4.02,66.17
569,-344,7974,-158,3,-10,-11.60,4.00,66.18
545,-656,7807,-155,9,-5,-13.74,3.92,66.14
494,-1026,7726,-150,16,0,-15.84,3.72,66.01
412,-1481,7725,-145,19,3,-17.88,3.44,65.82
348,-1928,7800,-140,21,2,-19.87,3.12,65.62
331,-2342,7911,-138,20,0,-21.81,2.83,65.43
288,-2656,7979,-139,17,-2,-23.75,2.59,65.24
211,-2894,7904,-141,10,-3,-25.70,2.43,64.99
151,-3091,7696,-142,5,-2,-27.67,2.34,64.69
155,-3269,7464,-142,6,0,-29.64,2.25,64.32
222,-3461,7233,-142,8,3,-31.62,2.14,63.89
273,-3669,6999,-142,12,5,-33.60,1.98,63.41
246,-3934,6773,-143,20,7,-35.59,1.72,62.91
185,-4262,6608,-144,29,7,-37.61,1.34,62.42
108,-4559,6513,-144,37,5,-39.63,0.88,61.98
-4,-4810,6470,-143,39,2,-41.63,0.42,61.59
-147,-4993,6445,-141,33,2,-43.59,-0.00,61.14
-266,-5139,6379,-136,23,4,-45.48,-0.33,60.57
-336,-5325,6232,-129,8,9,-47.27,-0.56,59.77
-398,-5555,5980,-119,-6,15,-48.96,-0.71,58.71
-417,-5756,5672,-109,-14,19,-50.53,-0.82,57.46
-357,-5847,5382,-104,-13,20,-52.00,-0.94,56.15
-286,-5926,5077,-105,-11,20,-53.46,-1.08,54.81
-237,-6041,4717,-107,-5,19,-54.96,-1.25,53.43
-218,-6164,4308,-109,7,17,-56.51,-1.50,52.13
-175,-6283,3785,-110,17,14,-58.11,-1.78,50.88
-180,-6428,3250,-106,33,12,-59.71,-2.14,49.77
-240,-6650,2941,-98,49,14,-61.23,-2.63,48.90
-381,-6944,2929,-87,54,17,-62.58,-3.20,48.22
-590,-7322,3120,-75,42,19,-63.73,-3.75,47.53
-744,-7778,3370,-63,23,16,-64.69,-4.17,46.72
-784,-8195,3547,-52,6,10,-65.46,-4.40,45.85
-727,-8536,3602,-39,-6,3,-66.06,-4.45,44.98
-711,-8687,3620,-26,-8,-1,-66.48,-4.41,44.33
-647,-8697,3664,-14,-7,-3,-66.70,-4.34,43.96
-548,-8654,3748,-4,-4,-3,-66.77,-4.26,43.82
-446,-8602,3885,6,3,-1,-66.69,-4.23,43.98
-304,-8582,4004,14,7,1,-66.49,-4.26,44.34
-194,-8632,4059,25,12,2,-66.16,-4.30,44.93
-159,-8730,4167,42,16,1,-65.62,-4.37,45.86
-157,-8817,4441,61,18,-1,-64.81,-4.43,47.15
-186,-8817,4839,83,12,-5,-63.67,-4.44,48.74
-247,-8738,5204,110,-1,-9,-62.15,-4.34,50.48
-377,-8625,5562,147,-20,-11,-60.13,-4.10,52.28
-445,-8391,5933,183,-48,-9,-57.56,-3.71,53.93
-314,-7986,6186,204,-77,-8,-54.61,-3.06,55.16
-100,-7385,6224,207,-90,-7,-51.57,-2.21,56.04
95,-6649,6129,194,-82,-8,-48.69,-1.33,56.75
308,-5920,6015,172,-58,-8,-46.11,-0.58,57.46
473,-5365,6034,154,-26,-7,-43.81,-0.13,58.27
486,-5044,6251,145,-3,-4,-41.68,0.03,59.14
370,-4890,6602,144,1,0,-39.58,0.03,59.95
208,-4876,6934,147,-10,6,-37.45,0.06,60.56
41,-4925,7129,150,-29,9,-35.32,0.22,60.91
-88,-4962,7183,151,-43,8,-33.20,0.59,61.10
-152,-4943,7125,146,-50,4,-31.16,1.09,61.23
-135,-4819,7000,136,-47,-3,-29.25,1.65,61.41
-31,-4546,6873,119,-33,-10,-27.55,2.15,61.69
68,-4192,6787,99,-13,-15,-26.09,2.45,62.08
159,-3856,6829,82,7,-17,-24.86,2.53,62.54
177,-3582,6988,71,19,-14,-23.80,2.39,63.01
107,-3430,7138,68,22,-10,-22.81,2.14,63.42
7,-3403,7230,73,17,-5,-21.80,1.90,63.74
-102,-3443,7293,86,8,-1,-20.67,1.73,63.98
596,832,8124,1,-1,-1,5.45,4.20,65.85
596,821,8141,2,-4,-1,5.48,4.23,65.85
606,825,8137,4,-5,-1,5.55,4.29,65.86
623,838,8129,5,-5,-1,5.63,4.36,65.87
629,873,8112,5,-5,-1,5.72,4.43,65.89
648,915,8087,5,-5,-1,5.80,4.49,65.91
672,967,8065,4,-4,-1,5.88,4.55,65.92
703,1019,8038,3,-3,-1,5.95,4.59,65.92
721,1067,8022,2,-2,0,6.01,4.62,65.93
732,1097,8024,1,-2,1,6.06,4.66,65.92
730,1109,8019,0,-3,1,6.08,4.69,65.90
731,1099,8016,-1,-3,1,6.09,4.73,65.88
747,1095,8023,-2,-3,1,6.09,4.77,65.87
763,1113,8033,-3,-2,1,6.07,4.80,65.86
766,1127,8036,-5,-1,2,6.04,4.82,65.84
757,1115,8063,-7,-1,3,5.96,4.83,65.80
746,1076,8088,-9,-1,4,5.86,4.85,65.75
708,1012,8094,-11,-3,4,5.73,4.88,65.70
659,938,8050,-15,-6,4,5.53,4.94,65.65
640,858,7981,-20,-7,3,5.27,5.03,65.62
659,797,7912,-26,-5,1,4.93,5.11,65.61
699,746,7862,-34,-1,-1,4.49,5.14,65.63
731,676,7839,-44,5,-3,3.92,5.08,65.69
773,599,7861,-55,11,-4,3.20,4.94,65.75
791,519,7914,-68,18,-5,2.30,4.72,65.82
747,441,7988,-82,23,-8,1.22,4.41,65.92
677,360,8041,-96,26,-11,-0.04,4.05,66.07
597,246,8055,-108,28,-14,-1.48,3.66,66.24
493,107,8055,-116,29,-16,-3.06,3.23,66.45
388,-67,8034,-120,27,-16,-4.71,2.84,66.65
310,-255,8018,-119,22,-15,-6.37,2.51,66.84
276,-460,8008,-115,19,-13,-7.97,2.23,66.99
234,-677,8013,-110,16,-11,-9.50,2.01,67.10
221,-883,7993,-107,11,-7,-10.99,1.84,67.14
207,-1071,7943,-107,5,-5,-12.48,1.76,67.12
194,-1272,7880,-111,2,-2,-14.00,1.72,67.04
218,-1499,7789,-118,3,-1,-15.62,1.68,66.91
216,-1770,7703,-128,10,-1,-17.38,1.56,66.76
200,-2105,7608,-140,18,-2,-19.30,1.34,66.62
210,-2439,7440,-152,30,-7,-21.41,1.01,66.53
182,-2751,7241,-160,46,-15,-23.64,0.53,66.57
106,-3053,7089,-163,57,-21,-25.95,-0.05,66.76
-19,-3328,7064,-158,59,-23,-28.21,-0.66,67.01
-205,-3566,7242,-145,51,-20,-30.29,-1.21,67.25
-318,-3718,7513,-128,29,-13,-32.12,-1.56,67.31
-328,-3831,7667,-113,-2,-5,-33.70,-1.59,67.08
-363,-3997,7617,-102,-28,4,-35.10,-1.38,66.52
-364,-4184,7377,-94,-42,11,-36.40,-1.03,65.68
-267,-4385,7002,-94,-43,14,-37.71,-0.67,64.72
-155,-4596,6537,-100,-32,13,-39.09,-0.40,63.77
-27,-4819,6069,-111,-11,8,-40.64,-0.30,62.96
107,-4993,5666,-122,15,0,-42.37,-0.39,62.38
114,-5101,5442,-129,36,-7,-44.20,-0.64,62.07
56,-5160,5362,-131,43,-9,-46.05,-0.97,61.89
-51,-5166,5414,-127,41,-7,-47.84,-1.31,61.69
-109,-5177,5456,-121,26,-1,-49.51,-1.58,61.30
-157,-5311,5367,-114,5,7,-51.10,-1.73,60.55
-241,-5527,5214,-104,-11,15,-52.56,-1.84,59.43
-259,-5768,5044,-96,-19,20,-53.91,-1.93,58.08
-247,-5976,4862,-94,-19,22,-55.22,-2.03,56.64
-229,-6166,4631,-94,-15,22,-56.53,-2.16,55.16
-219,-6377,4462,-95,-2,20,-57.87,-2.37,53.77
-264,-6612,4402,-94,10,19,-59.20,-2.65,52.54
-347,-6914,4391,-89,14,18,-60.46,-2.98,51.41
-466,-7252,4381,-76,8,16,-61.58,-3.27,50.29
-570,-7570,4324,-58,-2,16,-62.45,-3.49,49.22
-634,-7800,4297,-38,-9,16,-63.04,-3.66,48.25
-668,-7947,4356,-26,-15,16,-63.41,-3.80,47.41
-689,-8083,4435,-20,-19,17,-63.67,-3.91,46.57
-690,-8249,4542,-18,-18,18,-63.86,-4.03,45.80
-668,-8432,4561,-15,-21,18,-64.03,-4.14,45.02
-650,-8596,4592,-8,-13,15,-64.12,-4.26,44.43
-616,-8703,4674,0,-7,10,-64.11,-4.35,44.14
-609,-8799,4769,12,-7,3,-63.94,-4.35,44.16
-577,-8883,4796,28,-12,-4,-63.56,-4.26,44.45
-481,-8936,4691,50,-18,-12,-62.93,-4.02,45.02
-395,-8901,4595,76,-19,-18,-61.96,-3.67,45.98
-258,-8685,4579,100,-22,-21,-60.63,-3.25,47.25
-48,-8331,4620,117,-24,-20,-59.02,-2.80,48.68
141,-7876,4686,126,-22,-16,-57.25,-2.38,50.11
252,-7371,4803,130,-16,-11,-55.39,-2.06,51.48
321,-6883,4981,128,-9,-5,-53.53,-1.86,52.76
331,-6513,5195,125,-2,-1,-51.70,-1.78,53.93
278,-6289,5448,126,2,1,-49.88,-1.78,55.01
166,-6176,5726,134,1,3,-47.98,-1.82,56.04
-7,-6134,6020,144,-6,5,-45.94,-1.84,56.97
-192,-6137,6295,155,-20,8,-43.76,-1.78,57.71
-292,-6107,6457,161,-34,9,-41.49,-1.57,58.25
-264,-5965,6455,159,-41,6,-39.24,-1.23,58.66
-164,-5706,6411,151,-31,2,-37.09,-0.88,59.08
-130,-5379,6442,139,-17,-1,-35.09,-0.65,59.58
-178,-5051,6534,123,-7,-2,-33.28,-0.54,60.08
-207,-4752,6670,108,0,-2,-31.69,-0.53,60.52
-268,-4519,6781,96,2,-2,-30.28,-0.56,60.92
-347,-4415,6892,90,4,-1,-29.00,-0.62,61.27
-451,-4381,7055,93,7,0,-27.71,-0.74,61.60
-615,-4370,7281,101,2,2,-26.34,-0.84,61.88
-788,-4354,7488,109,-15,4,-24.86,-0.80,62.07
-869,-4309,7575,113,-36,6,-23.32,-0.51,62.12
1066,682,8048,2,-4,1,5.12,7.35,65.93
1075,660,7995,2,-2,0,5.15,7.38,65.92
1070,654,7962,1,-1,-1,5.18,7.39,65.93
1062,666,7956,1,0,-1,5.20,7.40,65.94
1064,685,7974,2,0,-1,5.22,7.39,65.95
1056,701,8004,3,-2,-1,5.27,7.40,65.95
1047,711,8011,4,-3,0,5.33,7.43,65.96
1037,703,8013,5,-4,0,5.41,7.48,65.94
1024,681,8005,7,-6,0,5.50,7.54,65.94
1026,657,7983,8,-7,-1,5.61,7.63,65.94
1047,643,7973,9,-6,-2,5.73,7.70,65.95
1062,653,7965,10,-4,-3,5.87,7.76,65.98
1060,680,7944,10,-4,-3,6.02,7.81,66.01
1075,725,7916,9,-3,-3,6.17,7.84,66.05
1090,781,7904,8,-2,-3,6.29,7.87,66.08
1082,823,7887,7,-4,-2,6.40,7.91,66.09
1077,852,7875,8,-6,-2,6.52,7.96,66.12
1098,877,7867,10,-8,-1,6.66,8.06,66.15
1117,900,7853,12,-8,-1,6.83,8.16,66.16
1123,934,7835,13,-10,0,7.02,8.29,66.15
1138,961,7812,13,-12,1,7.21,8.44,66.15
1152,992,7812,12,-14,1,7.40,8.62,66.14
1176,1028,7827,13,-15,1,7.58,8.82,66.14
1196,1073,7802,13,-15,1,7.78,9.03,66.14
1199,1121,7770,10,-13,1,7.94,9.22,66.15
1195,1196,7782,4,-12,1,8.04,9.38,66.16
1200,1270,7813,-4,-12,1,8.04,9.52,66.16
1220,1271,7807,-12,-11,1,7.93,9.68,66.18
1216,1175,7794,-19,-13,1,7.69,9.84,66.20
1194,1016,7835,-21,-20,0,7.40,10.08,66.25
1183,851,7856,-17,-31,-2,7.13,10.45,66.35
1206,754,7784,-17,-38,-4,6.89,10.94,66.50
1263,728,7622,-26,-38,-5,6.59,11.46,66.67
1344,779,7414,-42,-34,-7,6.09,11.93,66.87
1523,826,7260,-61,-21,-7,5.35,12.28,67.08
1668,921,7140,-83,0,-8,4.32,12.37,67.27
1750,987,7047,-108,20,-8,2.98,12.17,67.43
1728,983,7018,-134,36,-7,1.25,11.74,67.57
1635,861,7041,-157,48,-6,-0.79,11.10,67.67
1533,648,7061,-175,55,-3,-3.13,10.35,67.73
1443,350,7036,-187,58,0,-5.68,9.55,67.74
1360,-24,7016,-189,61,1,-8.30,8.69,67.72
1242,-435,7119,-183,65,3,-10.88,7.80,67.65
1063,-795,7348,-174,61,6,-13.33,6.91,67.56
873,-1099,7553,-170,49,10,-15.70,6.13,67.38
723,-1404,7673,-171,42,15,-18.07,5.46,67.09
570,-1718,7758,-172,42,17,-20.46,4.80,66.74
423,-2066,7796,-174,42,17,-22.86,4.12,66.35
290,-2435,7817,-173,44,15,-25.28,3.43,65.96
182,-2809,7847,-169,45,14,-27.63,2.74,65.59
107,-3198,7829,-164,41,14,-29.91,2.08,65.19
10,-3568,7715,-159,32,16,-32.14,1.52,64.70
-52,-3956,7452,-151,21,17,-34.29,1.07,64.08
-79,-4309,7073,-142,15,18,-36.34,0.72,63.38
-112,-4616,6733,-133,15,19,-38.27,0.37,62.64
-84,-4889,6525,-126,15,20,-40.09,0.02,61.89
-27,-5130,6402,-122,15,21,-41.83,-0.34,61.12
10,-5384,6317,-120,12,21,-43.52,-0.67,60.26
44,-5605,6219,-119,10,20,-45.19,-0.96,59.37
79,-5747,6106,-120,14,18,-46.85,-1.27,58.47
81,-5895,5939,-122,14,16,-48.54,-1.57,57.55
37,-6120,5675,-121,11,15,-50.25,-1.83,56.55
-28,-6355,5346,-114,10,14,-51.91,-2.08,55.51
-84,-6568,5045,-102,10,13,-53.43,-2.32,54.47
-112,-6711,4894,-88,12,12,-54.75,-2.54,53.57
-156,-6847,4931,-79,14,13,-55.89,-2.80,52.75
-275,-6968,5124,-72,13,14,-56.90,-3.08,51.99
-372,-7084,5288,-69,2,14,-57.80,-3.31,51.13
-387,-7245,5237,-66,-8,12,-58.68,-3.42,50.12
-368,-7426,5012,-60,-9,9,-59.53,-3.47,49.11
-333,-7618,4771,-52,-9,6,-60.29,-3.48,48.18
-291,-7732,4578,-44,-7,2,-60.95,-3.45,47.41
-408,-7876,4704,-33,-11,2,-61.46,-3.41,46.77
-552,-8036,4959,-7,-51,4,-61.55,-3.22,46.02
-360,-7983,4644,6,-48,4,-61.44,-2.92,45.30
-234,-7892,4517,2,-17,3,-61.39,-2.77,44.97
-221,-7807,4694,-3,-13,0,-61.37,-2.69,44.81
-106,-7717,4672,-5,-19,-2,-61.37,-2.54,44.57
45,-7602,4507,-7,-10,-3,-61.44,-2.40,44.38
123,-7496,4445,-6,-3,-3,-61.52,-2.29,44.32
167,-7428,4377,-1,2,-2,-61.53,-2.25,44.36
219,-7410,4281,6,9,-2,-61.46,-2.24,44.56
227,-7447,4254,13,13,-4,-61.30,-2.26,44.94
78,-7560,4314,26,11,-5,-60.99,-2.27,45.49
-107,-7770,4454,48,5,-3,-60.40,-2.29,46.17
-301,-8082,4755,80,-1,-2,-59.39,-2.29,47.13
-466,-8325,5309,112,-14,-2,-57.88,-2.23,48.29
-509,-8249,5889,127,-40,-1,-56.03,-1.99,49.32
-412,-7924,6116,119,-60,0,-54.20,-1.55,49.99
-238,-7520,5974,100,-62,-1,-52.65,-1.01,50.32
-22,-7167,5643,79,-46,-4,-51.44,-0.52,50.59
172,-6973,5234,67,-22,-9,-50.49,-0.16,50.99
277,-6960,4870,72,-3,-14,-49.57,0.07,51.64
286,-7019,4658,93,8,-17,-48.44,0.20,52.56
255,-7017,4721,120,10,-14,-46.94,0.26,53.67
196,-6800,5154,141,4,-10,-45.06,0.30,54.79
123,-6302,5840,143,-9,-5,-42.99,0.40,55.75
100,-5650,6518,126,-20,-2,-41.02,0.60,56.44
124,-5038,6902,98,-30,1,-39.39,0.88,56.84
1191,74,8187,4,-2,-1,-0.16,8.58,65.18
1187,110,8197,4,-3,0,-0.09,8.61,65.18
1190,133,8190,3,-3,1,-0.03,8.65,65.17
1196,136,8177,2,-2,0,0.02,8.67,65.16
1194,127,8150,1,-1,-1,0.05,8.67,65.17
1206,122,8124,0,0,-2,0.08,8.67,65.19
1227,118,8101,1,1,-3,0.10,8.65,65.21
1234,116,8082,1,2,-3,0.13,8.62,65.24
1238,110,8073,2,2,-2,0.18,8.59,65.27
1239,104,8078,4,1,-2,0.23,8.57,65.29
1235,104,8087,4,0,-2,0.31,8.56,65.31
1231,104,8103,4,-1,-2,0.38,8.56,65.32
1228,101,8113,2,-1,-1,0.43,8.57,65.34
1224,90,8109,0,-1,-1,0.44,8.57,65.35
1199,69,8091,-4,-1,-1,0.41,8.58,65.36
1175,15,8065,-8,-2,-1,0.32,8.59,65.37
1145,-44,8019,-11,-3,-2,0.17,8.60,65.40
1108,-110,7955,-15,-5,-4,-0.03,8.65,65.44
1136,-156,7885,-19,-5,-5,-0.27,8.72,65.50
1186,-186,7820,-24,-2,-6,-0.58,8.76,65.59
1212,-212,7789,-32,1,-7,-1.00,8.75,65.69
1238,-236,7755,-43,5,-8,-1.55,8.69,65.79
1269,-276,7712,-58,9,-9,-2.28,8.58,65.91
1270,-327,7664,-75,15,-11,-3.24,8.40,66.07
1248,-363,7620,-94,23,-14,-4.45,8.13,66.25
1215,-429,7622,-113,30,-16,-5.91,7.75,66.45
1174,-535,7603,-132,35,-18,-7.64,7.31,66.68
1140,-704,7471,-151,36,-19,-9.63,6.85,66.90
1078,-925,7194,-165,40,-19,-11.86,6.37,67.12
1019,-1253,6826,-169,48,-20,-14.20,5.81,67.32
927,-1673,6579,-161,59,-21,-16.48,5.14,67.57
803,-2098,6624,-145,66,-20,-18.58,4.35,67.86
686,-2455,6929,-131,59,-16,-20.46,3.59,68.11
542,-2757,7308,-121,41,-10,-22.18,3.03,68.24
360,-3000,7635,-115,22,-4,-23.79,2.69,68.22
223,-3183,7802,-114,8,-2,-25.36,2.52,68.07
125,-3337,7796,-117,1,-4,-26.98,2.48,67.86
57,-3488,7632,-122,1,-5,-28.65,2.47,67.62
48,-3665,7389,-124,8,-5,-30.38,2.40,67.39
39,-3854,7151,-122,18,-5,-32.09,2.21,67.21
1,-4060,6888,-115,22,-4,-33.75,1.97,67.05
-62,-4262,6700,-103,26,-4,-35.25,1.68,66.93
-116,-4422,6687,-90,27,-2,-36.56,1.36,66.85
-140,-4544,6751,-81,15,0,-37.69,1.12,66.71
-180,-4664,6758,-74,1,3,-38.72,1.02,66.42
-164,-4749,6680,-72,-7,6,-39.72,0.99,65.99
-66,-4817,6547,-76,-6,7,-40.74,0.99,65.50
11,-4882,6429,-82,1,7,-41.84,0.93,65.04
81,-4972,6316,-89,7,6,-43.04,0.80,64.58
104,-5089,6181,-94,11,5,-44.32,0.65,64.15
105,-5217,6007,-95,14,4,-45.64,0.47,63.72
69,-5343,5833,-92,16,4,-46.94,0.27,63.30
22,-5471,5721,-86,17,4,-48.15,0.05,62.91
-41,-5553,5716,-80,19,6,-49.26,-0.20,62.54
-90,-5627,5785,-78,15,9,-50.31,-0.45,62.13
-128,-5745,5833,-78,7,11,-51.35,-0.66,61.57
-144,-5931,5765,-78,-1,12,-52.40,-0.82,60.84
-148,-6161,5594,-75,-3,11,-53.44,-0.93,60.05
-115,-6347,5405,-70,0,9,-54.43,-1.04,59.30
-92,-6443,5253,-66,4,6,-55.36,-1.15,58.64
-92,-6485,5168,-64,7,6,-56.23,-1.27,58.08
-112,-6566,5140,-61,4,8,-57.06,-1.40,57.48
-107,-6698,5092,-56,1,11,-57.83,-1.53,56.81
-115,-6833,5037,-51,-2,11,-58.54,-1.66,56.09
-116,-6955,4973,-47,-6,11,-59.18,-1.75,55.35
-109,-7028,4903,-43,-9,10,-59.76,-1.81,54.60
-97,-7084,4821,-41,-10,10,-60.30,-1.87,53.84
-75,-7170,4745,-37,-10,12,-60.80,-1.93,53.08
-61,-7283,4691,-34,-7,13,-61.27,-2.02,52.36
-63,-7436,4676,-32,-5,13,-61.69,-2.14,51.71
-64,-7600,4692,-29,-2,12,-62.07,-2.26,51.13
-92,-7695,4745,-27,-2,10,-62.42,-2.38,50.62
-68,-7765,4732,-25,-5,8,-62.74,-2.44,50.13
-53,-7852,4663,-21,-6,6,-63.01,-2.48,49.66
-56,-7939,4586,-14,-6,6,-63.21,-2.49,49.29
-76,-8029,4512,-5,-7,4,-63.30,-2.50,49.01
-109,-8088,4520,6,-11,3,-63.24,-2.47,48.87
-96,-8139,4559,16,-17,1,-63.01,-2.38,48.82
-53,-8185,4553,26,-25,-1,-62.63,-2.22,48.83
37,-8237,4455,36,-28,-3,-62.15,-2.00,48.90
146,-8273,4306,47,-23,-5,-61.55,-1.74,49.18
154,-8240,4319,60,-13,-8,-60.77,-1.53,49.77
163,-8134,4519,72,-10,-10,-59.79,-1.32,50.64
115,-7949,4884,82,-12,-9,-58.62,-1.12,51.59
121,-7626,5332,83,-20,-5,-57.35,-0.91,52.44
211,-7298,5538,73,-31,-1,-56.17,-0.65,52.95
283,-7126,5440,63,-27,2,-55.19,-0.42,53.26
319,-7176,5217,62,-12,1,-54.31,-0.29,53.63
279,-7353,5043,73,1,-3,-53.37,-0.24,54.25
172,-7538,4994,92,1,-7,-52.21,-0.19,55.10
87,-7651,5016,113,-8,-9,-50.76,-0.06,56.00
6,-7662,5183,133,-18,-10,-49.01,0.17,56.91
-54,-7490,5485,146,-32,-11,-47.02,0.52,57.74
21,-7096,5840,151,-40,-13,-44.90,1.01,58.48
79,-6536,6219,145,-38,-14,-42.79,1.53,59.19
153,-5948,6519,130,-38,-12,-40.83,2.03,59.78
227,-5451,6624,114,-38,-11,-39.09,2.53,60.23
312,-5169,6564,104,-37,-11,-37.57,3.04,60.58
398,-5021,6474,102,-33,-11,-36.13,3.50,60.92
1226,533,7816,2,1,0,3.61,8.16,68.13
1239,534,7797,1,3,0,3.64,8.13,68.12
1235,539,7802,1,3,0,3.67,8.09,68.11
1233,545,7820,2,3,-1,3.70,8.05,68.10
1220,559,7854,2,4,-1,3.74,8.00,68.11
1208,570,7886,3,4,-1,3.79,7.94,68.11
1199,574,7909,4,4,-1,3.86,7.88,68.11
1193,572,7924,4,4,0,3.93,7.82,68.10
1186,560,7930,4,5,0,4.00,7.75,68.09
1183,555,7953,4,7,-1,4.06,7.66,68.07
1171,549,7985,3,8,-1,4.11,7.55,68.06
1137,530,8011,3,5,-1,4.16,7.45,68.05
1107,508,8018,5,2,0,4.22,7.40,68.04
1091,486,8002,7,2,0,4.30,7.37,68.02
1075,458,7961,8,4,0,4.40,7.32,68.01
1058,447,7913,7,6,-1,4.50,7.23,67.99
1044,467,7887,6,10,-2,4.59,7.10,67.99
1024,482,7861,5,12,-3,4.66,6.94,68.00
1019,497,7872,5,14,-3,4.73,6.74,68.01
1012,506,7888,4,17,-3,4.79,6.51,68.02
989,508,7931,3,18,-2,4.84,6.26,68.02
986,539,8005,1,21,-3,4.86,5.97,68.01
949,576,8083,-4,23,-3,4.83,5.64,68.01
887,592,8151,-10,24,-4,4.72,5.30,68.03
837,626,8166,-17,24,-5,4.52,4.96,68.06
796,647,8111,-27,25,-7,4.19,4.60,68.13
747,696,7997,-37,26,-9,3.74,4.22,68.22
716,753,7842,-49,30,-11,3.13,3.81,68.36
697,781,7672,-63,36,-13,2.34,3.32,68.51
673,772,7557,-77,44,-14,1.37,2.74,68.69
604,725,7544,-90,51,-14,0.20,2.05,68.87
499,631,7673,-100,55,-12,-1.13,1.29,69.04
340,473,7901,-106,54,-9,-2.56,0.52,69.17
157,241,8127,-110,46,-5,-4.08,-0.18,69.25
-20,-24,8247,-112,35,-2,-5.62,-0.72,69.28
-149,-306,8237,-112,27,-2,-7.19,-1.14,69.28
-237,-586,8180,-112,27,-4,-8.76,-1.52,69.29
-323,-819,8117,-112,28,-5,-10.33,-1.93,69.31
-403,-1024,8028,-113,26,-5,-11.91,-2.31,69.33
-443,-1200,7954,-112,28,-4,-13.47,-2.69,69.34
-510,-1405,7944,-110,30,-2,-15.01,-3.11,69.32
-595,-1684,8052,-109,27,2,-16.54,-3.51,69.27
-683,-2025,8261,-108,21,4,-18.06,-3.86,69.13
-757,-2371,8463,-110,13,4,-19.59,-4.11,68.94
-838,-2663,8570,-115,3,2,-21.17,-4.22,68.72
-877,-2893,8482,-122,-8,-2,-22.86,-4.17,68.45
-884,-3073,8058,-128,-16,-6,-24.63,-3.99,68.15
-800,-3211,7416,-124,-13,-11,-26.42,-3.76,67.89
-675,-3353,6851,-114,1,-13,-28.10,-3.66,67.73
-583,-3498,6621,-102,17,-8,-29.62,-3.76,67.66
-520,-3631,6754,-93,21,0,-30.96,-4.00,67.55
-508,-3756,7072,-88,11,8,-32.17,-4.20,67.29
-547,-3879,7413,-90,-4,13,-33.35,-4.30,66.83
-569,-4021,7602,-97,-20,14,-34.59,-4.24,66.16
-574,-4204,7542,-107,-34,13,-35.98,-4.01,65.30
-538,-4437,7240,-115,-36,11,-37.52,-3.70,64.33
-477,-4689,6757,-119,-28,8,-39.17,-3.45,63.36
-450,-4967,6239,-118,-15,5,-40.87,-3.31,62.49
-471,-5238,5845,-109,-1,3,-42.49,-3.31,61.78
-523,-5424,5682,-96,7,2,-43.93,-3.41,61.22
-564,-5547,5732,-85,5,4,-45.17,-3.51,60.69
-614,-5624,5881,-79,-2,7,-46.26,-3.60,60.10
-643,-5736,5949,-78,-12,11,-47.31,-3.63,59.34
-672,-5937,5889,-78,-16,12,-48.36,-3.63,58.42
-663,-6171,5721,-79,-16,9,-49.45,-3.60,57.49
-589,-6407,5451,-81,-13,4,-50.60,-3.54,56.58
-513,-6599,5137,-82,-6,-2,-51.79,-3.46,55.78
-481,-6725,4846,-78,4,-7,-52.96,-3.42,55.15
-451,-6783,4670,-72,12,-8,-54.04,-3.42,54.69
-421,-6748,4637,-63,18,-8,-54.98,-3.47,54.38
-409,-6686,4676,-56,15,-6,-55.79,-3.53,54.13
-382,-6669,4712,-49,9,-3,-56.49,-3.57,53.83
-352,-6684,4701,-44,5,-2,-57.09,-3.58,53.48
-325,-6705,4658,-41,5,-2,-57.65,-3.59,53.14
-315,-6736,4639,-40,6,-2,-58.20,-3.61,52.82
-320,-6789,4674,-39,8,-1,-58.73,-3.65,52.52
-329,-6866,4712,-38,8,-1,-59.23,-3.69,52.24
-342,-6997,4716,-35,7,-1,-59.71,-3.73,51.95
-380,-7135,4716,-28,6,-2,-60.12,-3.75,51.73
-403,-7263,4718,-19,5,-3,-60.40,-3.75,51.61
-434,-7368,4749,-7,1,-5,-60.52,-3.71,51.60
-437,-7440,4797,5,-5,-5,-60.46,-3.63,51.67
-358,-7496,4811,14,-9,-5,-60.26,-3.51,51.79
-273,-7545,4773,21,-8,-5,-59.96,-3.37,51.99
-239,-7586,4751,29,-4,-5,-59.57,-3.26,52.32
-217,-7548,4826,36,-1,-5,-59.06,-3.18,52.81
-176,-7436,4946,39,1,-5,-58.48,-3.11,53.36
-168,-7299,5129,39,4,-3,-57.88,-3.08,53.96
-173,-7168,5296,36,4,-1,-57.29,-3.08,54.50
-179,-7117,5360,35,2,0,-56.74,-3.10,54.96
-205,-7142,5365,42,3,0,-56.14,-3.11,55.43
-277,-7248,5368,57,2,0,-55.38,-3.14,56.01
-406,-7440,5359,80,-4,0,-54.34,-3.14,56.70
-545,-7677,5426,113,-15,0,-52.89,-3.07,57.49
-583,-7691,5607,140,-30,-1,-51.01,-2.87,58.26
-454,-7393,5770,147,-39,-3,-48.91,-2.52,58.96
-302,-6842,5875,135,-36,-4,-46.91,-2.13,59.56
-161,-6185,5947,113,-23,-2,-45.16,-1.83,60.12
-75,-5662,5974,91,-6,0,-43.74,-1.71,60.61
826,519,7962,3,-4,-1,4.19,5.87,70.18
827,525,7955,4,-4,-2,4.25,5.92,70.20
830,553,7936,3,-3,-2,4.31,5.95,70.22
841,598,7919,3,-3,-2,4.37,5.99,70.25
839,634,7919,2,-2,-2,4.41,6.01,70.27
834,641,7944,1,-2,-1,4.44,6.03,70.28
820,615,7957,1,-4,-1,4.46,6.07,70.29
802,573,7955,0,-6,-1,4.46,6.14,70.31
797,524,7948,-1,-7,-2,4.45,6.21,70.34
802,473,7948,-3,-7,-4,4.41,6.30,70.39
813,430,7941,-7,-6,-6,4.33,6.37,70.46
810,425,7936,-13,-4,-8,4.17,6.42,70.58
800,444,7912,-23,-3,-10,3.91,6.44,70.71
825,459,7908,-37,-1,-12,3.47,6.43,70.88
909,442,7993,-53,6,-14,2.81,6.37,71.08
929,421,8119,-72,10,-17,1.90,6.24,71.31
847,351,8166,-93,6,-19,0.70,6.12,71.57
798,235,8090,-111,2,-21,-0.75,6.05,71.87
808,113,7913,-125,7,-25,-2.41,5.98,72.20
778,-33,7688,-134,13,-27,-4.21,5.84,72.55
740,-168,7436,-137,18,-27,-6.08,5.62,72.92
720,-296,7105,-136,22,-26,-7.94,5.37,73.25
741,-438,6839,-130,31,-22,-9.73,5.03,73.56
746,-619,6788,-122,38,-16,-11.42,4.58,73.80
710,-839,6980,-115,38,-6,-13.01,4.07,73.93
630,-1077,7273,-112,31,2,-14.55,3.61,73.93
524,-1390,7553,-115,23,7,-16.12,3.23,73.82
408,-1753,7840,-122,24,8,-17.79,2.87,73.65
290,-2135,8109,-132,23,4,-19.59,2.50,73.51
159,-2509,8270,-141,18,-1,-21.53,2.21,73.40
70,-2794,8256,-149,12,-5,-23.58,2.01,73.30
47,-2977,8057,-154,10,-7,-25.71,1.90,73.20
67,-3080,7770,-157,11,-6,-27.87,1.78,73.05
108,-3188,7463,-155,13,-2,-30.03,1.63,72.85
148,-3379,7195,-148,16,3,-32.12,1.44,72.58
199,-3662,6983,-138,16,9,-34.08,1.19,72.25
185,-3982,6840,-127,12,14,-35.90,0.93,71.82
130,-4313,6773,-119,7,16,-37.59,0.69,71.29
81,-4575,6803,-115,3,17,-39.21,0.49,70.69
65,-4775,6801,-118,-4,16,-40.82,0.36,70.01
64,-4942,6650,-122,-8,15,-42.49,0.28,69.23
38,-5107,6375,-125,-6,14,-44.23,0.20,68.40
35,-5301,6042,-122,-2,14,-45.96,0.08,67.56
25,-5564,5747,-113,1,14,-47.59,-0.07,66.75
-30,-5842,5579,-99,3,15,-49.06,-0.26,65.97
-37,-6067,5491,-86,-2,13,-50.31,-0.43,65.22
-23,-6210,5413,-73,-6,11,-51.39,-0.51,64.47
0,-6307,5319,-65,-5,10,-52.32,-0.58,63.78
29,-6394,5268,-61,-1,10,-53.17,-0.68,63.15
54,-6452,5293,-60,3,10,-53.99,-0.80,62.60
101,-6517,5275,-63,2,9,-54.83,-0.92,62.02
101,-6623,5182,-62,2,8,-55.69,-1.02,61.41
93,-6744,5113,-57,4,8,-56.50,-1.14,60.84
73,-6847,5103,-50,6,8,-57.20,-1.26,60.35
19,-6910,5193,-45,7,8,-57.81,-1.41,59.93
-22,-6934,5288,-42,2,9,-58.34,-1.55,59.49
-60,-7009,5228,-40,-5,11,-58.86,-1.65,58.91
-73,-7150,5035,-32,-7,11,-59.31,-1.74,58.29
-75,-7326,4887,-21,-5,10,-59.65,-1.83,57.79
-65,-7441,4896,-14,-3,9,-59.85,-1.92,57.46
-25,-7488,4973,-13,-3,8,-59.99,-1.99,57.18
-20,-7541,5030,-13,-3,7,-60.12,-2.04,56.91
-32,-7620,5037,-9,-3,6,-60.22,-2.10,56.69
-63,-7717,4999,1,-5,5,-60.23,-2.12,56.54
-118,-7842,4961,17,-9,3,-60.03,-2.11,56.52
-180,-7988,4850,39,-16,1,-59.55,-2.04,56.64
-236,-8187,4743,67,-19,-1,-58.73,-1.92,56.96
-235,-8367,4765,98,-21,-2,-57.49,-1.76,57.59
-160,-8424,4893,127,-25,-3,-55.83,-1.54,58.41
-146,-8266,5004,149,-29,-2,-53.82,-1.28,59.31
-123,-7950,5111,164,-34,-2,-51.58,-0.99,60.18
-33,-7465,5258,170,-34,0,-49.20,-0.68,60.99
52,-6905,5451,167,-30,2,-46.80,-0.39,61.73
88,-6419,5683,160,-24,5,-44.48,-0.17,62.36
92,-6083,5993,154,-17,5,-42.26,-0.03,62.95
43,-5906,6381,155,-16,3,-40.05,0.09,63.52
-42,-5805,6836,161,-24,0,-37.77,0.30,64.03
-116,-5684,7226,168,-41,-2,-35.40,0.68,64.43
-96,-5482,7456,173,-56,-4,-32.97,1.29,64.70
-3,-5174,7526,171,-62,-7,-30.55,2.04,64.94
130,-4792,7458,162,-60,-10,-28.24,2.84,65.17
311,-4395,7270,148,-51,-12,-26.12,3.59,65.42
488,-3989,7067,132,-36,-15,-24.21,4.19,65.72
624,-3602,6911,117,-18,-16,-22.50,4.58,66.11
705,-3279,6870,103,-4,-17,-20.99,4.78,66.50
719,-2986,6974,92,2,-15,-19.62,4.84,66.88
720,-2738,7099,85,1,-12,-18.36,4.87,67.19
729,-2558,7166,79,0,-11,-17.20,4.91,67.46
692,-2464,7236,77,1,-9,-16.10,4.93,67.69
600,-2453,7373,79,-1,-7,-15.00,4.94,67.89
501,-2464,7513,83,-10,-6,-13.86,5.02,68.04
447,-2423,7582,86,-19,-6,-12.69,5.23,68.15
421,-2331,7528,86,-23,-7,-11.50,5.52,68.25
415,-2228,7389,83,-23,-10,-10.34,5.84,68.38
448,-2104,7231,77,-16,-12,-9.25,6.09,68.55
535,-1960,7180,71,-4,-14,-8.24,6.21,68.77
584,-1778,7238,64,6,-15,-7.32,6.18,69.00
598,-1587,7370,57,10,-15,-6.48,6.06,69.22
613,-1400,7539,52,10,-13,-5.71,5.92,69.43
804,531,8227,0,-3,0,2.30,5.77,71.47
794,490,8248,1,-5,0,2.33,5.81,71.46
785,456,8229,1,-7,-1,2.34,5.88,71.48
802,445,8174,1,-7,-2,2.37,5.97,71.51
833,456,8111,1,-6,-3,2.40,6.06,71.54
857,484,8028,0,-5,-2,2.42,6.13,71.58
871,508,7960,-1,-4,-2,2.44,6.19,71.60
885,522,7928,-2,-3,-1,2.44,6.23,71.61
891,522,7935,-3,-1,-1,2.41,6.24,71.62
879,501,7974,-4,-1,-1,2.38,6.25,71.63
860,455,8016,-5,-2,-1,2.32,6.26,71.65
844,405,8029,-5,-2,-2,2.27,6.27,71.67
838,357,8014,-6,-3,-3,2.18,6.30,71.70
841,314,7961,-8,-3,-3,2.08,6.34,71.75
850,268,7927,-11,-2,-3,1.94,6.37,71.78
836,214,7881,-15,-2,-3,1.75,6.39,71.83
861,173,7846,-22,1,-3,1.46,6.38,71.87
873,115,7844,-32,6,-5,1.06,6.31,71.93
865,40,7905,-45,11,-7,0.48,6.16,72.02
849,-62,8016,-59,14,-10,-0.28,5.97,72.14
817,-170,8107,-74,15,-13,-1.26,5.75,72.30
782,-264,8106,-91,16,-18,-2.46,5.53,72.53
758,-349,8059,-105,20,-22,-3.86,5.27,72.80
732,-432,8027,-115,24,-24,-5.40,4.97,73.12
660,-537,8008,-119,25,-23,-7.01,4.64,73.42
569,-666,7965,-114,21,-20,-8.59,4.34,73.69
476,-819,7890,-105,17,-16,-10.06,4.11,73.89
397,-1025,7828,-93,13,-11,-11.39,3.92,74.03
323,-1230,7826,-83,8,-7,-12.57,3.78,74.10
286,-1421,7836,-78,2,-4,-13.66,3.73,74.10
270,-1570,7812,-80,0,-3,-14.76,3.71,74.07
232,-1691,7775,-88,1,-3,-15.95,3.68,74.04
237,-1825,7707,-100,5,-5,-17.29,3.62,74.00
259,-1949,7610,-112,10,-7,-18.80,3.51,74.01
295,-2086,7474,-122,13,-9,-20.44,3.37,74.03
339,-2229,7291,-124,15,-9,-22.15,3.21,74.05
382,-2398,7098,-121,17,-7,-23.84,3.04,74.05
421,-2608,6949,-111,18,-4,-25.42,2.84,74.03
452,-2815,6890,-100,18,1,-26.86,2.61,73.95
461,-3016,6914,-92,13,6,-28.16,2.40,73.81
393,-3236,7056,-88,10,11,-29.38,2.20,73.57
338,-3438,7290,-90,4,14,-30.61,2.02,73.22
325,-3624,7501,-98,-2,14,-31.91,1.91,72.80
344,-3804,7570,-111,-5,12,-33.37,1.86,72.33
330,-3996,7465,-122,-2,10,-35.01,1.80,71.83
299,-4211,7258,-127,4,8,-36.76,1.70,71.37
259,-4444,7016,-123,8,6,-38.49,1.55,70.95
171,-4728,6759,-107,6,8,-40.06,1.39,70.52
80,-5044,6586,-86,3,10,-41.35,1.24,70.07
17,-5303,6588,-65,-2,13,-42.34,1.10,69.60
13,-5490,6716,-54,-12,15,-43.12,1.04,69.07
58,-5572,6865,-51,-20,16,-43.79,1.05,68.43
101,-5600,6889,-57,-26,17,-44.51,1.12,67.67
214,-5670,6667,-67,-28,16,-45.40,1.24,66.80
307,-5768,6264,-76,-21,12,-46.44,1.35,65.96
375,-5883,5792,-79,-8,7,-47.58,1.39,65.25
439,-5960,5396,-77,4,2,-48.71,1.35,64.76
472,-5998,5139,-68,14,2,-49.73,1.24,64.41
475,-5989,5092,-61,19,6,-50.61,1.05,64.18
418,-6012,5255,-56,19,10,-51.38,0.77,63.97
329,-6071,5467,-54,11,13,-52.08,0.51,63.63
294,-6214,5550,-54,0,13,-52.79,0.34,63.13
309,-6435,5441,-52,-6,11,-53.52,0.26,62.49
314,-6675,5222,-47,-5,8,-54.21,0.22,61.91
330,-6854,5023,-41,2,4,-54.83,0.17,61.48
316,-6951,4907,-35,9,0,-55.35,0.10,61.26
257,-6958,4913,-28,13,-1,-55.77,0.02,61.20
203,-6930,5010,-22,12,1,-56.06,-0.09,61.21
155,-6928,5124,-16,6,3,-56.26,-0.19,61.17
126,-6999,5217,-9,1,5,-56.37,-0.28,61.07
