aX,aY,aZ,gX,gY,gZ,yaw,pitch,roll
-69,1468,8051,8,-1,-1,10.20,-1.08,62.04
-44,1501,8051,9,-1,0,10.33,-1.06,62.03
-29,1533,8061,10,-1,1,10.48,-1.04,62.00
-28,1560,8061,11,-1,2,10.64,-1.01,61.96
-44,1584,8058,12,-2,1,10.82,-0.99,61.92
-50,1621,8062,13,-2,1,11.02,-0.96,61.89
-52,1671,8076,14,-2,1,11.23,-0.93,61.86
-50,1725,8102,16,-3,1,11.47,-0.91,61.82
-28,1772,8122,17,-4,2,11.72,-0.86,61.78
8,1811,8131,18,-3,2,11.98,-0.79,61.73
36,1832,8116,19,-3,2,12.27,-0.74,61.67
52,1827,8105,21,-2,2,12.56,-0.70,61.61
52,1789,8091,24,-2,2,12.88,-0.67,61.55
38,1729,8069,28,-3,2,13.24,-0.62,61.49
11,1674,8053,32,-4,1,13.67,-0.57,61.43
13,1593,8036,39,-5,-1,14.17,-0.51,61.39
-19,1540,8034,46,-5,-2,14.76,-0.45,61.35
-41,1524,8017,54,-9,-4,15.45,-0.36,61.33
-17,1541,7951,63,-13,-6,16.26,-0.23,61.34
77,1604,7870,72,-13,-9,17.21,-0.08,61.38
169,1678,7726,82,-14,-12,18.30,0.06,61.42
305,1750,7520,93,-12,-14,19.54,0.19,61.47
405,1814,7334,106,-8,-16,20.96,0.27,61.48
496,1893,7233,120,-6,-17,22.57,0.31,61.45
472,2014,7211,134,-6,-17,24.36,0.31,61.37
364,2197,7219,145,-11,-16,26.32,0.33,61.24
335,2437,7269,155,-15,-16,28.42,0.41,61.07
244,2746,7318,158,-19,-17,30.60,0.51,60.88
109,3057,7242,159,-25,-19,32.80,0.64,60.70
-29,3376,7095,160,-25,-24,35.03,0.74,60.55
-118,3663,6910,159,-24,-31,37.25,0.74,60.44
-245,3928,6712,157,-21,-37,39.46,0.64,60.36
-405,4174,6498,155,-17,-43,41.62,0.41,60.30
-594,4436,6321,153,-16,-48,43.77,0.08,60.25
-677,4729,6141,151,-19,-52,45.88,-0.29,60.26
-684,5018,5948,148,-21,-53,47.95,-0.68,60.27
-735,5247,5720,147,-20,-52,50.00,-1.08,60.23
-841,5388,5395,148,-24,-50,52.05,-1.48,60.14
-938,5463,4991,151,-27,-48,54.14,-1.86,59.98
-1034,5547,4552,156,-30,-48,56.31,-2.22,59.73
-1116,5679,4135,160,-31,-49,58.54,-2.62,59.40
-1100,5945,3794,162,-33,-51,60.82,-3.05,58.96
-1001,6277,3481,161,-33,-51,63.09,-3.48,58.43
-859,6611,3135,157,-31,-50,65.33,-3.92,57.73
-720,6893,2840,155,-25,-50,67.53,-4.40,56.75
-681,7115,2577,154,-22,-47,69.71,-4.90,55.44
-716,7288,2313,156,-24,-42,71.90,-5.37,53.77
-752,7428,2014,158,-25,-37,74.12,-5.78,51.65
-808,7565,1722,160,-27,-33,76.37,-6.14,48.96
-888,7752,1471,160,-27,-30,78.62,-6.49,45.53
-933,8005,1280,157,-28,-27,80.83,-6.80,41.33
-894,8315,1120,150,-27,-25,82.95,-7.09,36.23
-841,8624,958,140,-26,-24,84.93,-7.36,30.26
-733,8828,757,130,-24,-22,86.76,-7.61,23.49
-663,8954,557,123,-22,-19,88.48,-7.82,15.81
-651,8974,352,117,-22,-12,90.11,-172.04,7.33
-700,8930,196,111,-22,-6,91.66,-171.97,-1.62
-820,8837,66,103,-25,-2,93.09,-171.94,-10.47
-947,8694,-47,94,-27,-1,94.40,-171.90,-18.80
-1099,8498,-182,85,-29,-1,95.56,-171.85,-26.32
-1234,8270,-403,76,-34,-1,96.59,-171.77,-33.17
-1325,8036,-802,66,-38,-2,97.50,-171.66,-39.39
-1403,7788,-1275,59,-35,-7,98.36,-171.50,-45.00
-1493,7676,-1651,54,-30,-12,99.15,-171.26,-49.69
-1543,7784,-1835,48,-27,-14,99.88,-171.00,-53.52
-1508,8087,-1899,38,-27,-12,100.44,-170.75,-56.65
-1383,8451,-1970,24,-24,-10,100.80,-170.57,-59.06
-1254,8802,-2053,9,-19,-9,100.97,-170.43,-60.62
-1195,9084,-2132,-3,-16,-8,100.96,-170.33,-61.52
-1145,9294,-2227,-13,-12,-5,100.82,-170.26,-61.95
-1113,9454,-2316,-24,-7,-1,100.54,-170.26,-61.82
-1150,9533,-2396,-35,-1,2,100.14,-170.31,-60.97
-1267,9571,-2403,-44,5,6,99.62,-170.41,-59.30
-1414,9600,-2301,-54,10,11,98.96,-170.57,-56.71
-1515,9656,-2084,-65,13,15,98.14,-170.78,-53.04
-1525,9745,-1809,-79,15,17,97.12,-171.04,-47.85
-1454,9815,-1524,-97,18,20,95.84,-171.34,-40.22
-1338,9816,-1286,-116,21,23,94.31,-171.71,-29.21
-1295,9718,-1107,-132,23,25,92.57,-172.10,-14.60
-1306,9463,-975,-143,23,29,90.67,-172.51,1.89
-1375,9144,-853,-150,22,34,88.67,-7.05,17.26
-1480,8759,-770,-154,17,39,86.61,-6.56,29.78
-1536,8329,-725,-157,17,42,84.52,-6.05,39.22
-1566,7921,-614,-158,23,43,82.43,-5.54,45.85
-1571,7586,-396,-159,28,42,80.31,-5.06,50.43
-1535,7360,-51,-162,32,41,78.14,-4.62,53.78
-1391,7227,384,-168,36,41,75.88,-4.21,56.31
-1251,7188,856,-178,41,43,73.48,-3.80,58.21
-1183,7183,1284,-189,42,46,70.93,-3.39,59.72
-1303,7166,1633,-197,39,49,68.25,-2.99,60.97
-1540,7034,1943,-199,28,48,65.51,-2.62,62.16
-1687,6747,2151,-197,17,45,62.78,-2.25,63.35
-1748,6385,2305,-192,11,42,60.11,-1.91,64.41
-1720,6064,2465,-187,10,38,57.51,-1.59,65.32
-1584,5826,2658,-182,11,34,54.99,-1.34,66.05
-1338,5668,2920,-179,18,28,52.51,-1.18,66.60
-1056,5554,3266,-177,27,24,50.05,-1.14,66.99
-831,5471,3685,-176,35,24,47.61,-1.20,67.19
-692,5402,4151,-173,38,26,45.19,-1.31,67.27
-395,1447,8061,5,-1,0,10.28,-2.74,63.77
-374,1437,8039,6,0,0,10.36,-2.73,63.75
-365,1426,8003,6,0,0,10.45,-2.73,63.73
-352,1406,7974,7,1,0,10.54,-2.74,63.72
-348,1401,7964,9,1,-1,10.66,-2.76,63.70
-357,1411,7967,10,1,-1,10.80,-2.78,63.69
-358,1440,7992,12,1,-1,10.97,-2.80,63.69
-353,1494,8020,13,0,-1,11.16,-2.81,63.68
-341,1555,8048,15,0,-2,11.37,-2.82,63.68
-314,1605,8068,16,0,-2,11.60,-2.81,63.68
-283,1639,8077,17,-1,-2,11.85,-2.81,63.68
-238,1669,8079,19,0,-2,12.12,-2.80,63.69
-189,1693,8079,21,-1,-2,12.41,-2.78,63.69
-127,1725,8063,23,-1,-3,12.74,-2.76,63.69
-80,1762,8039,25,0,-3,13.09,-2.74,63.70
-29,1795,8075,28,0,-4,13.48,-2.74,63.71
13,1812,8087,31,1,-4,13.90,-2.73,63.72
18,1810,8100,35,0,-4,14.37,-2.72,63.72
23,1774,8069,41,-1,-4,14.90,-2.70,63.72
43,1725,7990,47,0,-5,15.52,-2.69,63.72
32,1698,7932,55,2,-7,16.23,-2.72,63.72
-21,1694,7875,63,2,-8,17.05,-2.77,63.73
-57,1694,7771,71,1,-11,17.98,-2.83,63.76
-103,1684,7617,81,2,-15,19.04,-2.91,63.80
-139,1694,7492,91,6,-19,20.23,-3.04,63.87
-224,1769,7446,102,8,-23,21.56,-3.26,63.95
-341,1874,7427,113,7,-26,23.06,-3.50,64.04
-445,2007,7396,124,4,-27,24.69,-3.73,64.13
-506,2162,7324,133,3,-27,26.47,-3.94,64.17
-602,2360,7269,141,2,-28,28.35,-4.16,64.19
-702,2607,7188,148,-1,-29,30.34,-4.38,64.18
-769,2852,7066,153,-3,-31,32.41,-4.60,64.16
-838,3102,6929,157,-3,-33,34.53,-4.83,64.11
-961,3332,6747,159,-5,-34,36.69,-5.08,64.04
-1054,3589,6607,160,-9,-37,38.86,-5.35,63.99
-1144,3825,6447,160,-13,-40,41.03,-5.61,63.96
-1261,4062,6230,160,-13,-45,43.19,-5.93,63.96
-1407,4337,5985,159,-14,-50,45.35,-6.32,63.99
-1504,4647,5728,159,-15,-56,47.50,-6.78,64.06
-1551,5016,5528,156,-12,-61,49.63,-7.33,64.14
-1585,5408,5377,152,-12,-63,51.69,-7.93,64.22
-1572,5772,5213,148,-15,-62,53.70,-8.54,64.28
-1495,6078,4960,145,-20,-60,55.65,-9.09,64.35
-1388,6313,4651,143,-19,-57,57.58,-9.60,64.35
-1312,6482,4277,143,-17,-53,59.52,-10.11,64.19
-1298,6597,3891,146,-17,-48,61.51,-10.58,63.85
-1277,6642,3443,150,-18,-43,63.55,-11.00,63.30
-1248,6682,2971,155,-15,-40,65.68,-11.41,62.49
-1241,6781,2574,159,-13,-37,67.90,-11.80,61.31
-1259,6990,2260,160,-10,-35,70.15,-12.18,59.76
-1314,7292,2021,157,-6,-34,72.39,-12.59,57.80
-1348,7661,1863,150,0,-33,74.56,-13.01,55.37
-1387,8040,1759,141,2,-30,76.60,-13.39,52.54
-1469,8310,1640,132,3,-26,78.52,-13.73,49.36
-1570,8409,1490,124,5,-21,80.32,-14.02,45.79
-1730,8375,1334,119,5,-17,82.03,-14.26,41.82
-1954,8243,1145,116,-1,-11,83.68,-14.45,37.49
-2147,8060,890,115,-5,-6,85.30,-14.58,32.70
-2303,7892,574,115,-10,-3,86.91,-14.66,27.24
-2391,7774,220,115,-11,0,88.54,-14.69,20.96
-2407,7768,-93,113,-9,1,90.16,-165.30,13.98
-2357,7865,-328,107,-7,1,91.71,-165.30,6.68
-2297,8017,-469,98,-3,0,93.14,-165.32,-0.28
-2256,8205,-536,87,-2,1,94.41,-165.34,-6.51
-2214,8403,-596,75,-2,3,95.51,-165.38,-11.82
-2168,8632,-654,62,0,4,96.42,-165.45,-16.09
-2149,8871,-690,49,-1,5,97.14,-165.55,-19.39
-2152,9076,-768,36,-3,7,97.66,-165.66,-21.85
-2157,9207,-907,23,-4,9,98.00,-165.80,-23.62
-2203,9305,-1044,12,-2,9,98.20,-165.94,-24.65
-2268,9401,-1180,0,-1,9,98.24,-166.06,-24.99
-2360,9471,-1307,-12,2,10,98.15,-166.20,-24.67
-2492,9529,-1386,-21,4,11,97.91,-166.35,-23.70
-2607,9584,-1415,-30,5,11,97.56,-166.49,-22.20
-2726,9647,-1376,-38,6,13,97.09,-166.65,-20.09
-2829,9743,-1292,-47,5,15,96.47,-166.82,-17.43
-2847,9817,-1230,-58,4,16,95.72,-167.01,-14.12
-2848,9856,-1137,-69,7,16,94.81,-167.22,-10.00
-2870,9814,-1041,-80,4,17,93.75,-167.44,-5.09
-2807,9623,-1048,-88,0,19,92.57,-167.66,0.29
-2695,9354,-1046,-93,3,20,91.35,-167.91,5.85
-2578,9093,-983,-95,2,23,90.08,-168.20,11.42
-2442,8846,-871,-97,0,29,88.78,-11.44,16.81
-2288,8608,-733,-99,-1,35,87.46,-10.98,21.87
-2180,8389,-508,-101,-2,40,86.10,-10.46,26.64
-2093,8207,-268,-105,-5,43,84.66,-9.88,31.26
-1951,8050,-53,-112,-8,45,83.15,-9.26,35.69
-1791,7908,82,-121,-9,44,81.52,-8.64,39.97
-1658,7743,126,-131,-8,44,79.77,-8.02,44.00
-1584,7542,136,-139,-5,41,77.93,-7.44,47.64
-1571,7303,129,-144,-2,38,76.01,-6.93,50.82
-1595,7005,145,-145,0,34,74.09,-6.50,53.53
-1606,6685,202,-143,1,30,72.18,-6.14,55.80
-1540,6405,304,-139,1,27,70.32,-5.82,57.71
-1365,6201,492,-136,2,24,68.50,-5.54,59.34
-1100,6087,786,-135,4,22,66.68,-5.27,60.74
-821,6103,1176,-136,5,23,64.85,-5.00,61.92
-529,6204,1617,-140,6,27,62.96,-4.67,62.92
-270,6298,2046,-145,9,32,61.00,-4.28,63.72
-462,1293,8138,4,-2,0,9.62,-3.18,63.96
-473,1324,8154,5,-4,1,9.68,-3.14,63.94
-499,1352,8159,5,-5,1,9.77,-3.08,63.92
-522,1372,8144,6,-5,0,9.86,-3.04,63.91
-522,1385,8125,7,-4,-1,9.95,-2.99,63.91
-504,1406,8104,7,-4,-2,10.05,-2.95,63.92
-467,1443,8094,8,-4,-2,10.17,-2.91,63.94
-418,1493,8084,9,-3,-1,10.30,-2.87,63.95
-365,1536,8084,10,-3,0,10.44,-2.82,63.95
-336,1571,8100,11,-3,1,10.61,-2.77,63.93
-324,1589,8122,12,-4,2,10.79,-2.71,63.88
-322,1583,8147,14,-4,3,10.99,-2.65,63.82
-330,1572,8167,16,-4,4,11.21,-2.59,63.76
-345,1569,8190,17,-4,3,11.45,-2.54,63.70
-354,1588,8212,19,-4,3,11.71,-2.48,63.63
-342,1644,8246,20,-4,2,12.00,-2.43,63.58
-318,1720,8286,21,-4,2,12.29,-2.38,63.53
-289,1794,8317,21,-5,2,12.60,-2.31,63.48
-262,1831,8328,21,-5,3,12.91,-2.22,63.41
-232,1832,8298,22,-5,3,13.22,-2.14,63.34
-170,1796,8245,23,-5,2,13.54,-2.06,63.29
-146,1773,8217,25,-2,0,13.88,-2.01,63.25
-151,1770,8227,28,-2,-1,14.25,-1.99,63.21
-148,1790,8250,32,-3,0,14.67,-1.95,63.18
-137,1837,8263,36,-5,0,15.15,-1.89,63.14
-126,1910,8247,40,-7,1,15.69,-1.80,63.07
-103,1981,8190,45,-9,2,16.31,-1.67,62.99
-52,2042,8083,51,-11,3,17.00,-1.50,62.90
43,2091,7935,56,-10,3,17.76,-1.32,62.79
118,2109,7747,61,-6,2,18.59,-1.19,62.66
157,2082,7552,67,-1,-1,19.49,-1.14,62.53
158,2058,7429,77,6,-4,20.51,-1.20,62.40
111,2102,7417,88,9,-5,21.68,-1.33,62.25
26,2171,7435,97,7,-4,22.98,-1.45,62.05
-29,2288,7463,106,2,-2,24.39,-1.51,61.82
-108,2433,7460,112,-3,-2,25.91,-1.50,61.56
-178,2611,7447,115,-8,-3,27.48,-1.46,61.31
-227,2802,7382,116,-12,-3,29.08,-1.35,61.04
-244,2937,7201,114,-13,-5,30.66,-1.22,60.79
-308,3019,6985,114,-7,-11,32.23,-1.19,60.57
-432,3053,6773,117,-3,-18,33.81,-1.30,60.38
-543,3137,6610,124,-2,-23,35.47,-1.49,60.21
-664,3290,6500,133,-4,-23,37.26,-1.69,60.00
-777,3490,6361,143,-13,-20,39.18,-1.80,59.72
-880,3677,6158,152,-25,-16,41.23,-1.77,59.41
-820,3999,5944,157,-28,-15,43.39,-1.65,59.02
-771,4393,5849,155,-27,-15,45.57,-1.54,58.56
-767,4804,5770,147,-28,-16,47.65,-1.46,58.10
-809,5152,5698,138,-27,-20,49.61,-1.45,57.68
-871,5387,5559,129,-28,-25,51.43,-1.51,57.35
-967,5554,5327,123,-29,-30,53.15,-1.63,57.11
-1012,5618,4999,122,-31,-34,54.84,-1.81,56.92
-1058,5623,4571,125,-32,-36,56.56,-2.02,56.71
-1047,5600,4048,134,-34,-35,58.41,-2.23,56.39
-976,5672,3572,149,-35,-32,60.47,-2.41,55.81
-906,5915,3204,161,-38,-25,62.73,-2.52,54.90
-768,6352,2967,166,-40,-19,65.09,-2.54,53.66
-582,6890,2824,161,-39,-17,67.40,-2.52,52.18
-465,7332,2729,151,-37,-17,69.58,-2.52,50.54
-405,7603,2560,141,-40,-17,71.60,-2.55,48.86
-338,7713,2219,135,-41,-19,73.53,-2.61,47.10
-332,7776,1795,132,-36,-20,75.44,-2.72,44.92
-320,7883,1364,130,-33,-22,77.33,-2.88,42.31
-305,8058,982,129,-27,-24,79.22,-3.12,39.11
-237,8274,682,125,-21,-24,81.06,-3.37,35.23
-146,8499,441,122,-18,-20,82.85,-3.59,30.68
-35,8754,227,118,-18,-15,84.58,-3.74,25.48
82,9002,53,111,-14,-11,86.22,-3.83,19.77
142,9305,-36,100,-10,-9,87.71,-3.89,13.89
177,9595,-85,86,-4,-8,89.00,-3.94,8.40
147,9793,-115,71,1,-7,90.06,-176.01,3.70
59,9867,-153,57,2,-5,90.92,-175.98,-0.14
-81,9810,-245,47,0,-1,91.64,-175.98,-3.32
-244,9671,-395,40,-3,4,92.24,-176.03,-6.08
-377,9499,-589,35,-5,6,92.78,-176.11,-8.62
-471,9358,-749,30,-4,7,93.26,-176.20,-10.86
-507,9300,-827,23,-2,8,93.64,-176.31,-12.65
-480,9319,-829,13,1,9,93.88,-176.45,-13.83
-441,9364,-803,-1,4,9,93.94,-176.60,-14.14
-412,9383,-798,-17,8,9,93.78,-176.75,-13.47
-415,9359,-794,-33,14,7,93.40,-176.89,-11.79
-481,9315,-773,-48,20,6,92.81,-177.00,-9.09
-587,9229,-734,-61,20,5,92.02,-177.07,-5.64
-723,9073,-732,-72,18,6,91.10,-177.14,-1.71
-856,8857,-772,-79,17,7,90.08,-177.21,2.48
-929,8636,-779,-83,16,7,89.00,-2.73,6.72
-927,8483,-702,-86,15,7,87.87,-2.66,10.93
-858,8430,-539,-91,14,10,86.66,-2.56,15.14
-758,8432,-371,-98,12,15,85.36,-2.39,19.34
-658,8411,-218,-107,14,19,83.93,-2.16,23.52
-622,8330,-83,-117,18,22,82.38,-1.89,27.55
-658,8196,59,-125,21,22,80.72,-1.65,31.36
-751,8043,208,-132,23,21,78.96,-1.44,34.90
-879,7824,384,-137,23,17,77.11,-1.30,38.18
-964,7590,585,-139,20,11,75.22,-1.25,41.25
-999,7406,827,-142,17,6,73.29,-1.27,44.10
-958,7289,1099,-145,14,2,71.31,-1.33,46.76
-824,7246,1428,-147,12,-1,69.30,-1.41,49.24
-611,7305,1813,-149,10,-1,67.25,-1.47,51.49
-305,936,8143,2,-2,7,6.72,-2.13,54.89
-292,948,8142,3,-2,7,6.77,-2.10,54.77
-288,958,8145,4,-1,8,6.84,-2.08,54.66
-292,957,8167,4,0,8,6.91,-2.06,54.54
-310,948,8198,5,0,8,6.98,-2.06,54.42
-349,944,8224,5,0,7,7.05,-2.06,54.31
-382,940,8245,5,0,6,7.13,-2.06,54.22
-393,959,8262,5,-1,5,7.20,-2.06,54.13
-385,988,8287,5,-1,5,7.29,-2.06,54.05
-377,1012,8304,5,-1,5,7.37,-2.04,53.96
-378,1031,8309,5,-1,5,7.45,-2.02,53.89
-372,1051,8311,5,-1,4,7.52,-2.00,53.81
-363,1077,8311,4,-2,4,7.59,-1.98,53.75
-354,1090,8300,4,-2,4,7.67,-1.96,53.69
-330,1107,8274,4,-3,4,7.73,-1.92,53.62
-297,1120,8230,4,-2,4,7.80,-1.88,53.56
-261,1128,8185,4,-2,4,7.87,-1.85,53.50
-232,1152,8156,5,-2,4,7.94,-1.81,53.43
-204,1170,8145,5,-2,5,8.03,-1.78,53.35
-187,1179,8134,6,-3,7,8.12,-1.73,53.25
-176,1169,8112,7,-3,9,8.23,-1.67,53.12
-172,1145,8090,9,-3,10,8.35,-1.61,52.97
-197,1095,8062,10,-3,10,8.49,-1.56,52.82
-247,1040,8031,13,-3,10,8.66,-1.51,52.67
-272,988,8029,16,-5,10,8.87,-1.44,52.51
-277,965,8012,19,-6,9,9.12,-1.34,52.36
-275,965,7990,22,-6,9,9.41,-1.25,52.22
-257,972,7939,24,-6,8,9.74,-1.15,52.08
-233,969,7858,27,-5,6,10.10,-1.07,51.96
-168,951,7751,32,-4,4,10.51,-0.99,51.87
-83,957,7645,38,-2,4,10.99,-0.94,51.76
-36,985,7548,46,-2,4,11.59,-0.90,51.65
-29,982,7423,57,-4,5,12.32,-0.83,51.51
7,1015,7350,70,-2,6,13.24,-0.78,51.33
41,1105,7395,83,-2,8,14.33,-0.71,51.09
23,1302,7532,93,-5,13,15.59,-0.62,50.77
26,1558,7726,99,-9,17,16.94,-0.45,50.37
-3,1838,7925,101,-12,19,18.36,-0.22,49.91
-40,2101,8045,102,-16,17,19.78,0.05,49.45
-64,2330,8054,103,-19,15,21.22,0.34,49.02
-80,2490,7911,107,-23,12,22.70,0.68,48.61
-33,2598,7726,114,-27,9,24.26,1.06,48.21
42,2728,7613,123,-26,9,25.94,1.44,47.76
66,2906,7564,130,-30,11,27.71,1.86,47.26
128,3118,7442,135,-36,14,29.57,2.38,46.67
266,3371,7329,135,-33,13,31.47,2.90,46.02
328,3648,7327,131,-25,8,33.32,3.29,45.37
265,3908,7378,123,-22,2,35.06,3.57,44.78
124,4138,7443,114,-23,-4,36.68,3.77,44.28
-40,4294,7441,106,-25,-10,38.17,3.90,43.92
-196,4380,7290,102,-29,-19,39.60,3.99,43.70
-308,4404,7041,104,-32,-26,41.04,4.04,43.58
-344,4469,6737,109,-35,-29,42.56,4.07,43.47
-267,4567,6451,114,-36,-32,44.17,4.10,43.35
-153,4752,6221,116,-37,-33,45.82,4.11,43.18
-55,4965,6056,119,-38,-34,47.52,4.11,42.96
10,5236,5953,120,-41,-33,49.24,4.12,42.71
70,5517,5820,120,-46,-31,50.96,4.16,42.42
130,5782,5626,118,-49,-30,52.68,4.23,42.10
200,5970,5289,115,-49,-32,54.37,4.28,41.78
221,6116,4952,115,-44,-36,56.06,4.23,41.43
298,6185,4583,115,-42,-40,57.74,4.09,41.04
392,6238,4195,118,-37,-42,59.47,3.88,40.54
480,6338,3805,121,-36,-41,61.24,3.65,39.90
566,6459,3441,125,-32,-40,63.07,3.38,39.02
560,6583,3164,130,-28,-38,64.96,3.10,37.87
446,6694,3007,135,-29,-36,66.90,2.79,36.51
394,6961,2937,137,-36,-33,68.86,2.52,35.00
439,7323,2898,132,-42,-31,70.77,2.31,33.41
574,7662,2774,121,-41,-33,72.55,2.09,31.83
696,7925,2604,109,-37,-35,74.18,1.83,30.25
801,8058,2322,102,-34,-36,75.67,1.52,28.69
876,8117,1990,98,-31,-34,77.11,1.21,26.99
910,8150,1646,96,-29,-31,78.52,0.92,25.09
945,8115,1309,97,-26,-30,79.96,0.63,22.92
921,8125,1094,97,-24,-26,81.38,0.37,20.50
860,8205,916,95,-25,-22,82.77,0.14,17.93
778,8303,780,90,-26,-21,84.09,-0.07,15.28
670,8437,698,84,-26,-20,85.31,-0.29,12.70
553,8600,641,76,-27,-20,86.42,-0.52,10.24
438,8801,608,66,-28,-19,87.39,-0.74,8.03
336,9003,538,55,-28,-17,88.20,-0.96,6.10
225,9163,416,42,-27,-16,88.84,-1.16,4.55
80,9201,210,32,-25,-16,89.33,-1.37,3.38
-32,9175,-70,25,-23,-13,89.74,-1.56,2.35
-101,9172,-321,20,-19,-9,90.09,-178.31,1.40
-135,9223,-507,15,-16,-5,90.37,-178.23,0.59
-107,9359,-583,7,-10,0,90.55,-178.22,0.03
-90,9556,-543,-5,-6,5,90.55,-178.29,-0.05
-97,9741,-443,-21,-1,10,90.34,-178.44,0.47
-124,9944,-301,-39,2,13,89.87,-1.38,1.79
-150,10125,-183,-61,6,14,89.10,-1.16,4.01
-234,10207,-123,-85,10,11,88.01,-1.00,7.22
-388,10090,-133,-105,10,3,86.64,-0.96,11.31
-563,9812,-189,-120,7,-3,85.06,-1.02,15.91
-685,9473,-301,-128,0,-2,83.38,-1.11,20.65
-708,9156,-385,-130,-5,1,81.66,-1.14,25.21
-643,8895,-405,-131,-10,6,79.93,-1.07,29.49
-566,8684,-288,-130,-9,14,78.21,-0.90,33.34
-524,1135,8130,2,0,5,7.58,-3.97,53.69
-526,1133,8140,2,0,5,7.62,-3.97,53.61
-540,1133,8156,2,0,6,7.67,-3.96,53.53
-552,1136,8163,2,-1,7,7.71,-3.95,53.44
-564,1137,8160,3,-1,7,7.76,-3.93,53.32
-567,1130,8151,3,-2,8,7.82,-3.90,53.21
-561,1124,8144,3,-2,8,7.88,-3.86,53.09
-566,1123,8138,3,-2,8,7.93,-3.82,52.97
-572,1106,8118,3,-3,8,7.99,-3.78,52.84
-573,1087,8097,4,-3,8,8.05,-3.73,52.72
-585,1070,8077,4,-3,8,8.11,-3.68,52.61
-579,1070,8061,4,-3,7,8.18,-3.64,52.50
-552,1087,8055,4,-3,7,8.25,-3.59,52.40
-530,1103,8053,4,-2,6,8.32,-3.55,52.30
-512,1117,8043,3,-1,6,8.38,-3.52,52.21
-503,1128,8036,3,-1,7,8.44,-3.50,52.10
-499,1133,8037,3,0,7,8.49,-3.49,52.01
-502,1144,8046,3,0,7,8.55,-3.49,51.90
-501,1141,8061,4,-1,7,8.61,-3.47,51.79
-509,1149,8070,4,-2,7,8.68,-3.45,51.68
-502,1155,8069,5,-2,7,8.76,-3.41,51.57
-480,1172,8062,6,-1,7,8.85,-3.38,51.47
-462,1183,8065,6,-1,7,8.94,-3.36,51.36
-446,1190,8072,7,-1,7,9.05,-3.34,51.25
-418,1222,8079,8,-1,6,9.16,-3.31,51.14
-392,1254,8098,9,0,7,9.31,-3.29,51.04
-368,1297,8122,10,0,7,9.46,-3.28,50.93
-357,1352,8166,12,0,7,9.63,-3.25,50.81
-346,1397,8207,13,-1,7,9.83,-3.22,50.70
-332,1415,8248,15,-2,7,10.06,-3.18,50.58
-322,1398,8250,19,-2,7,10.31,-3.13,50.45
-282,1353,8202,23,-3,7,10.62,-3.06,50.34
-223,1326,8160,28,-1,6,10.99,-3.02,50.22
-217,1333,8162,33,1,4,11.44,-3.01,50.11
-197,1327,8206,39,2,3,11.95,-3.01,50.02
-248,1344,8247,45,1,3,12.55,-3.02,49.91
-317,1377,8277,54,-1,4,13.25,-3.01,49.79
-353,1433,8254,63,-5,4,14.09,-2.95,49.66
-348,1485,8203,73,-8,5,15.06,-2.84,49.49
-353,1529,8119,84,-10,7,16.18,-2.69,49.28
-308,1558,8017,95,-12,8,17.45,-2.50,49.03
-305,1567,7923,107,-13,8,18.86,-2.29,48.74
-350,1577,7862,118,-15,6,20.42,-2.08,48.43
-459,1627,7855,129,-20,3,22.12,-1.84,48.12
-572,1805,7887,137,-27,0,23.95,-1.54,47.82
-625,2133,7911,141,-33,-3,25.87,-1.20,47.54
-584,2471,7899,141,-39,-7,27.82,-0.79,47.28
-524,2773,7818,138,-40,-12,29.72,-0.39,47.07
-445,3031,7704,133,-37,-18,31.58,-0.07,46.91
-457,3224,7515,130,-34,-24,33.38,0.15,46.82
-550,3295,7268,133,-35,-29,35.20,0.30,46.76
-702,3281,6974,140,-42,-33,37.08,0.43,46.73
-828,3307,6649,151,-47,-36,39.11,0.56,46.70
-875,3484,6403,159,-50,-39,41.29,0.67,46.63
-850,3829,6181,162,-54,-41,43.54,0.77,46.53
-743,4368,6068,158,-54,-44,45.78,0.84,46.42
-558,4920,6044,148,-52,-44,47.91,0.88,46.29
-481,5350,5973,139,-52,-46,49.91,0.87,46.21
-440,5615,5751,134,-57,-46,51.81,0.83,46.19
-410,5706,5344,133,-57,-46,53.69,0.78,46.13
-408,5683,4842,138,-55,-46,55.64,0.68,45.97
-343,5597,4298,147,-57,-46,57.70,0.56,45.65
-265,5613,3751,158,-56,-43,59.92,0.45,45.08
-196,5764,3311,166,-55,-40,62.29,0.32,44.17
-108,6130,3036,170,-55,-36,64.73,0.20,42.96
19,6601,2858,165,-55,-35,67.12,0.08,41.52
106,7033,2672,155,-52,-35,69.40,-0.07,39.95
152,7331,2478,145,-46,-37,71.51,-0.31,38.27
164,7518,2257,136,-42,-37,73.49,-0.60,36.46
119,7571,1943,132,-41,-33,75.39,-0.89,34.40
46,7532,1516,134,-41,-30,77.31,-1.16,31.96
-9,7418,1045,139,-41,-29,79.31,-1.44,28.95
-16,7341,604,145,-41,-27,81.40,-1.70,25.20
7,7397,249,146,-38,-26,83.53,-1.97,20.73
37,7627,88,144,-33,-26,85.62,-2.27,15.62
65,8010,74,134,-29,-25,87.56,-2.55,10.32
69,8367,123,120,-25,-25,89.29,-2.85,5.18
9,8597,174,106,-22,-24,90.80,-176.83,0.46
-134,8628,128,95,-24,-23,92.13,-176.51,-3.84
-334,8504,-73,90,-29,-21,93.39,-176.19,-8.06
-419,8337,-401,88,-31,-21,94.64,-175.86,-12.44
-410,8230,-731,87,-28,-20,95.88,-175.56,-16.87
-385,8230,-992,87,-27,-17,97.12,-175.28,-21.29
-317,8342,-1182,84,-27,-11,98.32,-175.09,-25.59
-265,8523,-1287,78,-26,-5,99.43,-174.98,-29.64
-295,8763,-1337,68,-25,0,100.40,-174.94,-33.17
-342,9037,-1353,55,-23,3,101.17,-174.94,-36.08
-442,9250,-1383,39,-20,4,101.73,-174.96,-38.26
-601,9386,-1437,22,-19,5,102.05,-174.98,-39.74
-705,9413,-1623,7,-19,6,102.17,-175.00,-40.76
-729,9374,-1930,-7,-12,4,102.13,-175.02,-41.20
-743,9359,-2189,-19,-1,0,101.95,-175.03,-40.86
-814,9358,-2340,-31,6,-2,101.62,-175.03,-39.78
-917,9363,-2385,-42,7,0,101.12,-175.03,-38.14
-954,9452,-2334,-54,9,3,100.46,-175.07,-36.00
-912,9603,-2187,-70,12,5,99.57,-175.17,-33.06
-887,9737,-1972,-89,15,7,98.41,-175.30,-29.03
-894,9809,-1743,-108,16,9,96.98,-175.46,-23.79
-1000,9829,-1581,-125,10,12,95.30,-175.62,-17.41
-649,739,8253,4,-2,2,5.80,-3.95,53.92
-610,769,8237,4,-2,2,5.87,-3.91,53.88
-573,808,8224,4,-2,3,5.94,-3.88,53.83
-544,833,8220,5,-3,4,6.02,-3.84,53.77
-529,858,8218,6,-3,4,6.12,-3.79,53.71
-520,873,8207,6,-3,4,6.22,-3.75,53.63
-515,879,8203,7,-3,4,6.32,-3.71,53.56
-530,876,8207,7,-3,4,6.42,-3.68,53.50
-538,873,8213,8,-4,3,6.55,-3.63,53.44
-540,878,8215,10,-4,3,6.68,-3.57,53.39
-526,898,8217,11,-4,3,6.84,-3.52,53.34
-493,932,8226,13,-5,3,7.02,-3.45,53.29
-449,967,8246,14,-5,3,7.22,-3.38,53.24
-391,1010,8261,15,-5,3,7.44,-3.31,53.18
-339,1048,8288,17,-5,4,7.68,-3.23,53.12
-287,1085,8325,19,-5,4,7.95,-3.14,53.04
-241,1123,8371,21,-5,4,8.25,-3.05,52.96
-205,1180,8421,25,-6,4,8.59,-2.94,52.88
-158,1247,8458,28,-7,4,8.98,-2.83,52.80
-112,1326,8522,32,-7,4,9.43,-2.71,52.71
-92,1394,8568,35,-9,5,9.93,-2.57,52.61
-65,1413,8590,41,-12,6,10.48,-2.38,52.50
-34,1420,8567,46,-15,7,11.11,-2.15,52.36
-32,1410,8495,53,-14,6,11.82,-1.92,52.22
-1,1353,8411,60,-14,4,12.62,-1.71,52.10
-5,1254,8344,69,-11,1,13.51,-1.53,52.00
-37,1170,8331,79,-9,0,14.54,-1.39,51.89
-127,1125,8335,89,-9,-3,15.69,-1.28,51.79
-188,1137,8303,99,-12,-7,16.97,-1.17,51.73
-204,1199,8264,108,-15,-12,18.39,-1.04,51.70
-245,1295,8159,116,-16,-15,19.92,-0.91,51.68
-252,1439,8017,125,-19,-18,21.58,-0.77,51.68
-259,1644,7934,133,-19,-21,23.36,-0.64,51.66
-313,1888,7867,141,-22,-21,25.26,-0.51,51.64
-406,2149,7786,148,-25,-21,27.26,-0.36,51.56
-518,2435,7705,154,-30,-21,29.36,-0.19,51.43
-633,2685,7569,159,-37,-21,31.52,0.03,51.28
-731,2907,7393,163,-41,-24,33.75,0.28,51.13
-791,3186,7174,165,-47,-27,36.02,0.52,50.98
-753,3519,6905,165,-51,-30,38.32,0.78,50.86
-607,3837,6571,162,-51,-33,40.61,1.02,50.73
-472,4113,6223,160,-44,-37,42.89,1.15,50.57
-393,4336,5887,159,-40,-40,45.13,1.16,50.38
-437,4490,5550,160,-37,-41,47.38,1.08,50.10
-509,4683,5276,163,-39,-40,49.67,0.96,49.74
-587,4890,5014,167,-48,-37,52.01,0.89,49.30
-603,5096,4649,171,-56,-35,54.43,0.91,48.78
-587,5340,4253,172,-58,-36,56.89,0.93,48.15
-550,5628,3935,170,-55,-39,59.33,0.85,47.40
-554,5959,3728,165,-52,-44,61.71,0.66,46.59
-519,6302,3544,157,-50,-49,63.97,0.35,45.78
-483,6584,3334,148,-48,-53,66.12,-0.04,44.93
-428,6783,3031,141,-47,-56,68.15,-0.51,44.06
-361,6921,2656,137,-44,-58,70.12,-1.04,43.06
-294,7065,2217,135,-42,-58,72.08,-1.61,41.82
-220,7213,1779,136,-40,-56,74.04,-2.19,40.24
-129,7383,1407,137,-38,-54,76.01,-2.76,38.25
-77,7627,1161,137,-38,-48,77.97,-3.29,35.82
-8,7863,952,134,-38,-41,79.90,-3.74,32.90
66,8053,744,130,-34,-33,81.76,-4.09,29.43
47,8165,553,124,-29,-27,83.55,-4.39,25.42
-59,8196,360,120,-26,-23,85.27,-4.66,20.90
-205,8164,139,116,-27,-20,86.94,-4.91,15.96
-386,8046,-90,114,-27,-19,88.57,-5.16,10.54
-489,7897,-344,112,-27,-20,90.17,-174.57,4.74
-563,7811,-599,107,-26,-21,91.72,-174.29,-1.26
-595,7749,-837,100,-23,-24,93.19,-173.96,-7.17
-589,7746,-1042,93,-21,-26,94.55,-173.61,-12.72
-600,7841,-1159,84,-19,-26,95.79,-173.25,-17.70
-609,7975,-1231,74,-20,-24,96.87,-172.91,-22.01
-631,8122,-1312,65,-21,-21,97.81,-172.59,-25.79
-693,8242,-1406,56,-20,-19,98.63,-172.31,-29.05
-808,8296,-1544,49,-20,-17,99.33,-172.05,-31.91
-949,8314,-1703,44,-19,-14,99.98,-171.81,-34.47
-1081,8372,-1872,40,-19,-12,100.56,-171.59,-36.81
-1163,8532,-2009,35,-17,-9,101.08,-171.42,-38.90
-1164,8825,-2061,27,-15,-5,101.50,-171.31,-40.65
-1111,9200,-2066,15,-12,-1,101.75,-171.27,-41.82
-1030,9561,-2087,0,-6,2,101.79,-171.31,-42.25
-1004,9846,-2127,-16,1,4,101.63,-171.41,-41.89
-1057,9992,-2175,-30,7,6,101.28,-171.55,-40.74
-1183,10004,-2208,-41,9,7,100.77,-171.68,-38.96
-1282,9940,-2222,-51,11,9,100.15,-171.83,-36.67
-1366,9856,-2157,-59,13,11,99.40,-172.01,-33.88
-1442,9778,-2034,-67,11,13,98.54,-172.20,-30.57
-1479,9696,-1864,-76,10,17,97.54,-172.44,-26.70
-1492,9611,-1681,-88,9,20,96.37,-172.71,-22.01
-1503,9453,-1535,-100,9,22,95.03,-173.02,-16.39
-1525,9215,-1392,-111,13,24,93.57,-173.33,-9.89
-1608,8927,-1225,-119,17,25,91.98,-173.67,-2.71
-1712,8588,-1049,-124,16,27,90.31,-173.99,4.62
-1727,8259,-899,-126,15,28,88.62,-5.68,11.65
-1665,8020,-735,-127,15,28,86.90,-5.34,18.12
-1528,7877,-584,-131,14,29,85.15,-4.98,24.04
-1367,7791,-445,-137,15,30,83.34,-4.60,29.38
-1247,7700,-333,-143,18,30,81.44,-4.23,34.15
-1204,7559,-208,-149,23,29,79.47,-3.90,38.26
-1310,7370,-39,-151,21,27,77.46,-3.62,41.84
-1463,7113,167,-150,15,25,75.42,-3.40,45.04
-212,861,8070,5,-2,1,7.76,-1.37,52.66
-196,858,8074,6,-2,1,7.84,-1.35,52.64
-189,865,8084,8,-2,1,7.93,-1.31,52.61
-188,881,8093,9,-3,1,8.04,-1.27,52.59
-175,913,8104,10,-4,0,8.17,-1.23,52.58
-141,960,8124,10,-4,-1,8.32,-1.18,52.58
-101,1014,8155,10,-4,-1,8.46,-1.13,52.58
-58,1066,8201,10,-3,-1,8.60,-1.08,52.58
-26,1112,8241,10,-3,0,8.74,-1.04,52.57
-3,1133,8290,10,-3,0,8.88,-0.99,52.56
-14,1159,8335,11,-4,1,9.04,-0.93,52.52
1,1175,8375,13,-6,2,9.22,-0.85,52.48
30,1196,8403,14,-7,2,9.41,-0.75,52.44
72,1236,8424,15,-7,3,9.62,-0.64,52.39
127,1302,8441,16,-7,3,9.85,-0.53,52.33
190,1361,8459,17,-8,3,10.09,-0.40,52.27
265,1398,8454,19,-7,3,10.36,-0.27,52.21
338,1375,8389,22,-8,2,10.65,-0.13,52.15
422,1270,8258,28,-8,1,11.01,0.01,52.10
486,1147,8152,38,-4,-2,11.48,0.11,52.08
501,1046,8078,50,-4,-5,12.09,0.18,52.07
506,978,8031,65,-5,-7,12.90,0.25,52.08
477,938,7971,80,-9,-8,13.92,0.35,52.08
490,985,7938,96,-8,-9,15.16,0.46,52.05
537,1215,8035,108,-10,-9,16.60,0.57,52.00
527,1544,8241,116,-12,-6,18.18,0.72,51.86
475,1901,8478,120,-18,-2,19.83,0.93,51.66
397,2206,8612,122,-25,1,21.52,1.24,51.40
292,2369,8549,123,-31,1,23.22,1.61,51.12
162,2430,8305,125,-29,-3,24.94,1.97,50.86
-65,2399,7981,130,-25,-12,26.71,2.19,50.65
-302,2349,7670,139,-21,-23,28.57,2.26,50.52
-487,2368,7413,147,-17,-33,30.56,2.20,50.45
-662,2534,7220,155,-18,-39,32.67,2.06,50.42
-786,2841,7037,159,-21,-42,34.87,1.89,50.36
-778,3289,6865,160,-23,-43,37.11,1.72,50.28
-705,3805,6695,157,-24,-41,39.35,1.58,50.13
-678,4221,6504,154,-25,-40,41.55,1.43,49.92
-682,4446,6260,153,-29,-39,43.71,1.30,49.68
-724,4496,5933,155,-32,-38,45.87,1.18,49.40
-777,4446,5545,158,-36,-37,48.07,1.08,49.04
-849,4371,5117,164,-41,-37,50.34,0.99,48.61
-920,4381,4744,171,-48,-40,52.71,0.89,48.12
-908,4569,4424,174,-57,-41,55.16,0.82,47.60
-812,4970,4160,174,-59,-43,57.62,0.74,47.02
-635,5475,3936,166,-59,-46,60.03,0.60,46.38
-460,6016,3776,156,-56,-48,62.30,0.40,45.72
-357,6456,3543,145,-53,-48,64.41,0.14,45.02
-310,6740,3215,137,-49,-49,66.40,-0.19,44.28
-309,6905,2834,133,-45,-50,68.33,-0.59,43.39
-380,6991,2417,133,-43,-50,70.25,-1.05,42.32
-413,7062,2004,137,-44,-50,72.21,-1.53,40.97
-404,7180,1624,140,-43,-49,74.22,-2.03,39.26
-372,7406,1259,142,-42,-47,76.27,-2.51,37.08
-316,7713,995,141,-39,-45,78.32,-2.99,34.39
-257,8115,855,139,-39,-42,80.32,-3.47,31.25
-182,8505,747,131,-39,-38,82.19,-3.89,27.78
-50,8724,543,122,-34,-34,83.94,-4.26,23.94
38,8807,250,116,-28,-27,85.62,-4.56,19.54
79,8726,-60,114,-27,-21,87.28,-4.78,14.55
12,8594,-390,115,-29,-18,88.93,-4.99,9.00
-142,8459,-716,114,-26,-17,90.59,-174.81,2.91
-322,8338,-965,112,-25,-16,92.22,-174.58,-3.46
-496,8286,-1135,110,-26,-17,93.81,-174.33,-9.88
-583,8338,-1232,103,-23,-18,95.31,-174.05,-15.98
-636,8504,-1232,93,-17,-18,96.66,-173.78,-21.29
-663,8696,-1182,81,-14,-18,97.83,-173.53,-25.64
-708,8809,-1127,69,-13,-17,98.80,-173.29,-29.14
-799,8834,-1127,58,-14,-13,99.62,-173.08,-32.03
-920,8794,-1199,50,-18,-9,100.30,-172.90,-34.58
-1023,8692,-1400,43,-20,-6,100.91,-172.75,-36.96
-1105,8588,-1652,37,-17,-5,101.45,-172.63,-39.09
-1188,8534,-1834,31,-14,-5,101.92,-172.52,-40.81
-1309,8534,-1962,24,-13,-4,102.30,-172.41,-42.21
-1355,8588,-2085,16,-12,-4,102.56,-172.31,-43.29
-1348,8714,-2142,6,-8,-3,102.70,-172.23,-43.89
-1315,8869,-2148,-6,-3,-2,102.66,-172.21,-43.94
-1300,9030,-2138,-19,1,2,102.46,-172.23,-43.43
-1272,9176,-2114,-31,1,6,102.08,-172.31,-42.44
-1247,9269,-2151,-42,1,11,101.54,-172.47,-41.08
-1289,9279,-2206,-50,0,14,100.89,-172.66,-39.40
-1324,9240,-2293,-58,-4,17,100.15,-172.88,-37.43
-1308,9142,-2420,-66,-2,17,99.31,-173.11,-35.08
-1283,9070,-2437,-74,6,15,98.38,-173.34,-31.88
-1299,9066,-2298,-84,10,14,97.32,-173.55,-27.72
-1296,9096,-2097,-95,12,17,96.08,-173.77,-22.51
-1263,9084,-1887,-106,13,21,94.69,-174.06,-16.39
-1259,9009,-1682,-116,14,25,93.15,-174.41,-9.39
-1292,8873,-1470,-122,12,31,91.52,-174.81,-1.95
-1331,8714,-1296,-126,5,36,89.82,-4.73,5.58
-1335,8517,-1173,-130,1,40,88.07,-4.22,12.97
-1311,8326,-1044,-135,2,41,86.27,-3.68,20.03
-1273,8105,-953,-141,2,40,84.39,-3.15,26.68
-1228,7884,-835,-148,9,36,82.45,-2.68,32.64
-1253,7722,-595,-155,19,32,80.39,-2.30,37.78
-1304,7608,-249,-163,23,29,78.21,-2.00,42.19
-1342,7558,167,-170,24,28,75.90,-1.76,46.00
-1363,7561,634,-176,24,26,73.50,-1.55,49.25
-1273,7610,1184,-182,20,26,70.99,-1.35,52.14
153,1407,7989,9,0,2,11.25,0.59,54.66
135,1416,8012,10,1,2,11.38,0.58,54.61
110,1423,8054,11,1,2,11.54,0.57,54.56
77,1441,8131,13,0,2,11.71,0.56,54.51
55,1447,8204,15,-1,2,11.90,0.57,54.47
48,1446,8268,17,-3,1,12.12,0.60,54.42
56,1453,8321,18,-4,1,12.35,0.64,54.38
78,1478,8359,19,-4,0,12.60,0.68,54.35
123,1516,8410,20,-4,-1,12.86,0.74,54.33
167,1569,8466,21,-5,-3,13.14,0.79,54.33
228,1633,8524,22,-6,-3,13.44,0.87,54.35
314,1687,8566,23,-8,-5,13.76,0.97,54.38
439,1717,8558,26,-11,-6,14.09,1.11,54.43
597,1726,8499,29,-11,-7,14.48,1.26,54.49
714,1718,8436,33,-10,-8,14.91,1.42,54.56
901,1695,8356,41,-11,-9,15.44,1.58,54.63
1019,1697,8256,49,-10,-10,16.07,1.74,54.69
1121,1733,8223,58,-9,-10,16.84,1.88,54.73
1152,1782,8210,68,-12,-8,17.73,2.05,54.73
1112,1831,8181,78,-15,-7,18.76,2.25,54.68
1053,1864,8125,88,-18,-6,19.92,2.47,54.62
961,1910,8044,97,-20,-7,21.22,2.71,54.52
841,1956,7930,107,-22,-9,22.66,2.96,54.42
744,1980,7793,116,-24,-11,24.21,3.20,54.31
586,2058,7666,124,-22,-13,25.87,3.41,54.18
391,2219,7619,131,-25,-15,27.65,3.58,54.04
225,2446,7558,136,-31,-17,29.52,3.79,53.90
109,2687,7393,138,-39,-17,31.43,4.08,53.78
79,2948,7099,138,-42,-18,33.37,4.40,53.64
107,3184,6775,136,-39,-20,35.33,4.68,53.49
55,3392,6452,136,-35,-22,37.27,4.88,53.33
-28,3525,6066,138,-37,-23,39.24,5.03,53.13
-131,3593,5691,143,-33,-25,41.26,5.13,52.87
-293,3651,5377,149,-32,-28,43.37,5.14,52.55
-469,3670,5044,156,-34,-30,45.58,5.11,52.16
-583,3723,4704,161,-36,-34,47.87,5.04,51.73
-683,3845,4352,163,-35,-41,50.21,4.87,51.27
-745,4030,4024,163,-32,-50,52.57,4.56,50.80
-752,4418,3745,158,-33,-57,54.91,4.13,50.34
-678,4884,3545,150,-29,-61,57.15,3.62,49.88
-620,5390,3450,143,-24,-66,59.27,2.99,49.40
-615,5860,3404,136,-25,-70,61.28,2.27,48.94
-711,6233,3292,130,-28,-70,63.19,1.53,48.53
-880,6517,3132,129,-33,-72,65.05,0.76,48.14
-968,6808,2928,129,-39,-75,66.91,-0.05,47.75
-930,7126,2620,128,-42,-76,68.76,-0.87,47.33
-799,7445,2270,125,-39,-76,70.58,-1.70,46.74
-664,7766,1952,122,-34,-74,72.37,-2.52,45.88
-540,8247,1777,120,-29,-70,74.12,-3.34,44.71
-357,8845,1691,111,-25,-62,75.75,-4.07,43.30
-195,9326,1591,99,-20,-54,77.21,-4.71,41.72
-170,9584,1409,90,-14,-47,78.53,-5.26,39.94
-244,9583,1141,87,-10,-42,79.81,-5.78,37.84
-413,9452,835,91,-7,-37,81.14,-6.27,35.24
-588,9229,582,97,-7,-32,82.54,-6.72,32.07
-741,8995,416,104,-10,-26,84.02,-7.09,28.25
-870,8781,273,109,-16,-19,85.56,-7.36,23.81
-1008,8636,84,111,-22,-12,87.12,-7.53,18.73
-1010,8559,-146,108,-24,-12,88.66,-7.69,13.14
-883,8609,-330,100,-16,-14,90.13,-172.15,7.31
-819,8692,-400,87,-9,-16,91.42,-171.99,1.86
-844,8688,-452,75,-10,-17,92.52,-171.77,-2.82
-881,8580,-563,65,-12,-17,93.46,-171.55,-6.89
-923,8458,-716,57,-12,-17,94.30,-171.32,-10.50
-949,8409,-876,50,-9,-18,95.04,-171.08,-13.71
-1016,8442,-989,42,-7,-18,95.68,-170.84,-16.33
-1083,8520,-1091,34,-8,-17,96.21,-170.61,-18.45
-1079,8627,-1159,26,-8,-14,96.62,-170.42,-20.18
-1063,8805,-1193,18,-7,-9,96.90,-170.29,-21.41
-1054,9028,-1194,7,-6,-4,97.05,-170.24,-22.12
-1008,9278,-1193,-4,-5,1,97.02,-170.28,-22.21
-984,9542,-1160,-17,0,7,96.82,-170.42,-21.54
-1048,9760,-1129,-30,2,13,96.44,-170.61,-20.13
-1158,9912,-1109,-42,2,17,95.90,-170.87,-18.03
-1275,9964,-1130,-53,3,19,95.20,-171.16,-15.21
-1365,9929,-1189,-64,6,20,94.39,-171.44,-11.76
-1475,9849,-1179,-73,11,20,93.46,-171.72,-7.62
-1563,9745,-1121,-80,12,20,92.42,-172.00,-2.99
-1603,9674,-976,-87,13,23,91.28,-172.29,1.99
-1625,9646,-728,-95,13,28,90.02,-172.66,7.23
-1684,9625,-427,-102,8,33,88.64,-6.92,12.68
-1737,9606,-104,-110,2,39,87.13,-6.43,18.24
-1764,9558,224,-119,-3,46,85.47,-5.85,23.89
-1728,9470,458,-129,-11,53,83.69,-5.16,29.50
-1631,9322,379,-140,-21,56,81.79,-4.39,35.03
-1374,9046,-28,-149,-18,52,79.82,-3.62,40.15
-1038,8689,-425,-156,3,43,77.83,-2.98,44.27
-813,8339,-599,-158,22,35,75.82,-2.51,47.34
-772,8031,-510,-156,32,33,73.80,-2.18,49.61
-770,7744,-189,-150,28,37,71.80,-1.84,51.41
-733,7539,260,-145,19,43,69.85,-1.43,53.00
-670,7416,793,-143,10,49,67.90,-0.88,54.41
-591,7325,1309,-145,0,55,65.92,-0.22,55.76
-510,7187,1723,-150,-6,60,63.86,0.54,57.06
-480,6990,1981,-155,-12,64,61.73,1.37,58.24
-485,6696,2040,-157,-13,66,59.58,2.22,59.29
-429,6266,2027,-154,-7,64,57.46,3.02,60.09
-330,5789,2014,-146,5,58,55.41,3.68,60.58
-238,5347,2117,-135,19,50,53.48,4.13,60.78
-154,1925,8071,-3,-2,1,13.81,-1.00,59.50
-155,1916,8071,-3,-2,2,13.77,-0.99,59.47
-161,1887,8060,-3,-2,2,13.73,-0.95,59.44
-172,1862,8025,-2,-2,2,13.70,-0.92,59.41
-178,1844,8013,-1,-2,1,13.68,-0.90,59.40
-200,1832,8013,0,-3,1,13.68,-0.87,59.38
-211,1829,8025,2,-5,0,13.70,-0.83,59.38
-189,1838,8013,3,-6,0,13.73,-0.76,59.38
-149,1861,7987,3,-5,-1,13.78,-0.70,59.39
-95,1904,7969,3,-5,-2,13.83,-0.64,59.41
-32,1938,7956,3,-3,-2,13.89,-0.59,59.43
2,1957,7951,3,-1,-2,13.93,-0.56,59.45
27,1974,7938,3,0,-2,13.99,-0.56,59.47
41,1990,7942,5,1,-3,14.05,-0.58,59.48
57,2011,7944,7,2,-3,14.16,-0.61,59.50
70,2037,7953,11,2,-2,14.30,-0.64,59.49
86,2061,7979,15,1,0,14.51,-0.66,59.46
104,2088,8024,21,-1,2,14.79,-0.63,59.41
128,2082,8049,26,-4,4,15.15,-0.57,59.31
171,2023,7991,32,-5,5,15.57,-0.47,59.19
236,1945,7896,38,-3,4,16.07,-0.39,59.07
282,1912,7851,44,-1,2,16.65,-0.34,58.96
306,1936,7858,50,0,1,17.31,-0.32,58.85
321,1989,7880,56,-2,0,18.06,-0.27,58.74
365,2057,7912,62,-2,0,18.90,-0.22,58.61
387,2184,7993,67,-1,0,19.80,-0.17,58.46
364,2361,8143,70,-2,1,20.76,-0.13,58.29
345,2546,8272,72,-5,1,21.74,-0.05,58.12
296,2649,8344,73,-7,0,22.74,0.05,57.95
218,2714,8310,74,-7,-2,23.75,0.13,57.79
137,2749,8213,76,-7,-6,24.78,0.18,57.68
45,2752,8006,80,-9,-11,25.85,0.21,57.62
-27,2732,7751,87,-7,-16,27.01,0.20,57.59
-118,2725,7542,97,-4,-20,28.29,0.11,57.56
-238,2767,7424,109,-8,-22,29.73,0.01,57.53
-368,2874,7294,120,-14,-22,31.33,-0.03,57.47
-476,3021,7137,129,-20,-22,33.06,-0.02,57.40
-477,3220,6970,136,-25,-25,34.91,0.03,57.33
-465,3507,6851,140,-24,-28,36.84,0.05,57.24
-473,3813,6740,141,-25,-30,38.79,0.05,57.15
-459,4098,6590,140,-28,-31,40.74,0.04,57.05
-460,4288,6286,140,-31,-33,42.69,0.03,56.97
-517,4373,5895,145,-30,-37,44.70,-0.04,56.88
-600,4420,5528,152,-33,-38,46.80,-0.14,56.73
-705,4539,5221,162,-36,-39,49.03,-0.26,56.52
-748,4796,4946,169,-42,-39,51.39,-0.37,56.24
-707,5185,4757,172,-43,-40,53.80,-0.48,55.87
-603,5682,4632,168,-45,-38,56.19,-0.59,55.42
-450,6119,4414,159,-45,-37,58.48,-0.68,54.92
-337,6438,4126,149,-38,-37,60.63,-0.84,54.34
-365,6619,3805,142,-33,-40,62.68,-1.09,53.65
-473,6705,3471,139,-31,-43,64.67,-1.44,52.90
-585,6807,3139,138,-33,-45,66.64,-1.86,52.05
-637,6926,2812,137,-35,-47,68.60,-2.30,51.12
-714,7072,2506,137,-34,-47,70.54,-2.78,50.00
-816,7232,2230,138,-36,-47,72.49,-3.27,48.67
-829,7415,1968,138,-38,-46,74.44,-3.76,47.10
-724,7696,1696,134,-36,-44,76.35,-4.25,45.14
-596,7986,1460,128,-26,-43,78.20,-4.72,42.67
-512,8286,1297,120,-19,-40,79.92,-5.20,39.72
-442,8554,1179,112,-17,-36,81.53,-5.63,36.41
-406,8728,1039,105,-17,-31,83.03,-6.00,32.79
-471,8766,819,98,-17,-25,84.44,-6.31,28.89
-579,8658,529,95,-16,-20,85.81,-6.57,24.47
-718,8448,214,96,-18,-18,87.17,-6.80,19.50
-895,8259,-68,97,-19,-17,88.56,-7.04,13.83
-1019,8148,-308,97,-20,-17,89.94,-7.29,7.58
-1062,8155,-506,93,-19,-17,91.29,-172.47,1.00
-1034,8242,-648,86,-14,-18,92.54,-172.23,-5.40
-991,8365,-727,76,-8,-18,93.66,-171.99,-11.08
-929,8474,-767,66,-5,-16,94.64,-171.78,-15.87
-903,8511,-812,58,-5,-13,95.49,-171.62,-19.92
-924,8490,-909,50,-7,-9,96.23,-171.51,-23.37
-936,8441,-1055,44,-8,-5,96.88,-171.43,-26.43
-974,8408,-1207,38,-7,-3,97.46,-171.39,-29.12
-1039,8376,-1359,33,-7,-1,97.96,-171.38,-31.42
-1130,8352,-1466,28,-7,1,98.40,-171.38,-33.38
-1248,8345,-1514,23,-8,2,98.75,-171.38,-35.06
-1359,8360,-1562,16,-11,3,99.01,-171.39,-36.45
-1395,8394,-1625,9,-10,2,99.17,-171.38,-37.52
-1422,8477,-1610,2,-7,0,99.23,-171.37,-38.08
-1498,8637,-1550,-7,-5,1,99.16,-171.37,-38.09
-1518,8836,-1507,-17,-6,3,98.95,-171.39,-37.60
-1488,9016,-1496,-28,-4,4,98.59,-171.44,-36.55
-1467,9219,-1452,-39,-1,6,98.09,-171.52,-34.73
-1510,9431,-1384,-50,-1,8,97.42,-171.63,-32.12
-1588,9680,-1271,-61,-6,9,96.59,-171.74,-28.73
-1611,9873,-1183,-73,-15,11,95.58,-171.85,-24.51
-1585,9996,-1136,-86,-18,12,94.39,-171.99,-19.01
-1518,10039,-1061,-97,-19,13,93.05,-172.17,-11.87
-1451,10016,-1036,-108,-23,17,91.56,-172.39,-2.86
-1348,9897,-1162,-118,-22,21,89.97,-7.32,7.56
-1192,9666,-1344,-124,-14,24,88.33,-6.97,18.38
-1064,9347,-1428,-125,-1,27,86.70,-6.57,27.93
-1059,9033,-1358,-124,10,34,85.08,-6.12,35.45
-1165,8742,-1130,-121,11,42,83.49,-5.60,41.16
-1313,8479,-772,-117,4,50,81.92,-4.99,45.76
-1401,8318,-320,-116,-4,55,80.34,-4.29,49.76
-1383,8278,228,-119,-12,59,78.71,-3.52,53.47
303,971,8172,1,0,0,6.10,1.57,61.94
303,976,8164,2,1,1,6.14,1.56,61.92
301,975,8167,2,2,0,6.18,1.53,61.90
275,968,8193,4,2,1,6.24,1.50,61.88
240,958,8231,5,0,1,6.31,1.48,61.86
220,950,8264,6,-2,2,6.40,1.49,61.82
225,965,8294,7,-3,2,6.50,1.52,61.79
242,984,8323,7,-4,1,6.60,1.57,61.77
273,1005,8322,6,-4,2,6.70,1.62,61.74
314,1014,8310,6,-4,2,6.78,1.68,61.70
353,1018,8300,5,-3,2,6.87,1.73,61.67
375,1007,8290,6,-3,3,6.95,1.79,61.63
395,973,8251,7,-4,3,7.04,1.84,61.58
412,933,8184,8,-3,3,7.15,1.90,61.53
431,895,8124,11,-2,2,7.28,1.94,61.48
428,871,8089,14,-2,2,7.46,1.97,61.44
461,856,8084,17,-3,1,7.68,2.02,61.41
521,845,8059,20,-2,1,7.93,2.07,61.37
573,852,8023,24,0,0,8.25,2.09,61.33
634,870,8017,28,1,-2,8.61,2.10,61.32
686,917,8033,33,2,-3,9.04,2.09,61.32
720,1006,8080,38,2,-4,9.56,2.08,61.32
758,1115,8146,45,-1,-3,10.16,2.09,61.30
787,1230,8212,52,-3,-1,10.87,2.15,61.26
810,1376,8296,59,-5,1,11.68,2.25,61.18
791,1537,8408,65,-9,3,12.57,2.38,61.06
763,1708,8494,69,-14,5,13.54,2.58,60.91
764,1883,8532,72,-16,6,14.55,2.83,60.74
764,2026,8495,71,-17,6,15.57,3.10,60.58
759,2118,8376,71,-14,3,16.57,3.32,60.43
735,2149,8213,70,-9,-2,17.56,3.46,60.33
654,2131,8073,72,-3,-8,18.55,3.50,60.27
528,2136,7963,75,-1,-14,19.57,3.44,60.27
431,2136,7857,80,1,-18,20.66,3.33,60.31
336,2176,7804,85,2,-20,21.80,3.19,60.36
214,2259,7800,91,1,-21,23.04,3.03,60.40
83,2398,7845,97,-4,-20,24.36,2.92,60.43
-9,2566,7848,102,-13,-18,25.75,2.90,60.44
-26,2725,7760,105,-19,-17,27.21,2.98,60.43
4,2853,7577,106,-20,-18,28.69,3.09,60.44
21,2915,7273,107,-18,-20,30.19,3.16,60.44
20,2878,6881,108,-13,-26,31.69,3.14,60.46
-31,2809,6495,113,-5,-34,33.24,2.97,60.50
-163,2805,6244,119,1,-42,34.87,2.62,60.56
-295,2933,6094,126,1,-47,36.59,2.17,60.64
-375,3219,6015,131,-2,-50,38.40,1.72,60.72
-352,3621,5988,133,-6,-50,40.27,1.29,60.80
-304,4061,5926,132,-8,-49,42.14,0.90,60.84
-250,4459,5824,129,-9,-47,43.98,0.53,60.86
-222,4828,5685,126,-11,-45,45.78,0.18,60.83
-200,5174,5554,123,-14,-42,47.55,-0.14,60.78
-211,5457,5446,121,-13,-40,49.26,-0.45,60.66
-289,5666,5331,121,-14,-39,50.97,-0.76,60.50
-372,5850,5136,123,-18,-39,52.69,-1.07,60.32
-414,6019,4890,124,-19,-41,54.43,-1.39,60.13
-430,6247,4700,125,-16,-43,56.20,-1.76,59.87
-453,6530,4597,126,-15,-44,57.97,-2.18,59.54
-453,6875,4581,124,-16,-44,59.71,-2.60,59.16
-472,7218,4557,120,-21,-41,61.39,-2.97,58.79
-460,7471,4431,115,-24,-38,62.99,-3.30,58.42
-452,7641,4203,111,-24,-36,64.54,-3.60,58.00
-490,7728,3918,108,-22,-36,66.07,-3.91,57.49
-582,7747,3631,109,-24,-35,67.58,-4.24,56.90
-699,7701,3317,113,-28,-35,69.13,-4.57,56.27
-755,7624,2980,119,-31,-33,70.77,-4.88,55.46
-773,7559,2616,124,-32,-31,72.47,-5.16,54.39
-746,7544,2258,127,-31,-29,74.25,-5.43,52.96
-669,7607,1931,128,-25,-29,76.05,-5.71,51.02
-591,7740,1726,126,-17,-29,77.84,-6.02,48.43
-570,7885,1601,122,-14,-26,79.56,-6.33,45.34
-604,7992,1465,118,-15,-20,81.23,-6.56,41.71
-619,8013,1230,114,-17,-16,82.83,-6.74,37.55
-657,7940,970,111,-17,-14,84.41,-6.89,32.68
-819,7817,707,109,-19,-14,85.95,-7.05,27.05
-969,7678,437,108,-22,-15,87.47,-7.25,20.64
-1066,7541,178,107,-23,-16,88.98,-7.48,13.24
-1162,7474,-86,105,-23,-17,90.46,-172.27,4.97
-1204,7463,-301,102,-21,-17,91.91,-172.01,-3.87
-1211,7536,-462,98,-20,-17,93.30,-171.76,-12.70
-1226,7644,-627,91,-17,-17,94.60,-171.50,-20.87
-1240,7772,-753,85,-15,-18,95.81,-171.24,-27.97
-1266,7934,-850,78,-12,-17,96.93,-170.98,-33.94
-1291,8090,-960,70,-11,-15,97.93,-170.76,-38.80
-1361,8206,-1088,64,-11,-12,98.84,-170.57,-42.83
-1436,8265,-1224,57,-14,-11,99.65,-170.38,-46.34
-1500,8272,-1393,52,-17,-10,100.38,-170.19,-49.48
-1565,8272,-1575,47,-19,-8,101.04,-170.02,-52.37
-1620,8287,-1757,42,-18,-6,101.65,-169.87,-54.88
-1647,8325,-1901,36,-16,-6,102.17,-169.74,-56.98
-1686,8400,-2008,29,-14,-6,102.60,-169.61,-58.69
-1684,8505,-2079,20,-12,-5,102.91,-169.51,-59.92
-1674,8595,-2125,12,-8,-4,103.10,-169.43,-60.73
-1684,8716,-2124,3,-8,-2,103.18,-169.38,-61.24
-1654,8832,-2138,-5,-9,2,103.12,-169.38,-61.57
-1622,8912,-2214,-15,-7,5,102.94,-169.44,-61.72
-1610,8936,-2338,-24,-2,7,102.66,-169.53,-61.43
-1653,8890,-2442,-32,1,7,102.28,-169.64,-60.64
-1697,8842,-2538,-39,3,8,101.82,-169.75,-59.53
-1740,8811,-2560,-46,4,9,101.26,-169.88,-58.02
-69,1468,8051,8,-1,-1,10.20,-1.08,62.04
-44,1501,8051,9,-1,0,10.33,-1.06,62.03
-29,1533,8061,10,-1,1,10.48,-1.04,62.00
-28,1560,8061,11,-1,2,10.64,-1.01,61.96
-44,1584,8058,12,-2,1,10.82,-0.99,61.92
-50,1621,8062,13,-2,1,11.02,-0.96,61.89
-52,1671,8076,14,-2,1,11.23,-0.93,61.86
-50,1725,8102,16,-3,1,11.47,-0.91,61.82
-28,1772,8122,17,-4,2,11.72,-0.86,61.78
8,1811,8131,18,-3,2,11.98,-0.79,61.73
36,1832,8116,19,-3,2,12.27,-0.74,61.67
52,1827,8105,21,-2,2,12.56,-0.70,61.61
52,1789,8091,24,-2,2,12.88,-0.67,61.55
38,1729,8069,28,-3,2,13.24,-0.62,61.49
11,1674,8053,32,-4,1,13.67,-0.57,61.43
13,1593,8036,39,-5,-1,14.17,-0.51,61.39
-19,1540,8034,46,-5,-2,14.76,-0.45,61.35
-41,1524,8017,54,-9,-4,15.45,-0.36,61.33
-17,1541,7951,63,-13,-6,16.26,-0.23,61.34
77,1604,7870,72,-13,-9,17.21,-0.08,61.38
169,1678,7726,82,-14,-12,18.30,0.06,61.42
305,1750,7520,93,-12,-14,19.54,0.19,61.47
405,1814,7334,106,-8,-16,20.96,0.27,61.48
496,1893,7233,120,-6,-17,22.57,0.31,61.45
472,2014,7211,134,-6,-17,24.36,0.31,61.37
364,2197,7219,145,-11,-16,26.32,0.33,61.24
335,2437,7269,155,-15,-16,28.42,0.41,61.07
244,2746,7318,158,-19,-17,30.60,0.51,60.88
109,3057,7242,159,-25,-19,32.80,0.64,60.70
-29,3376,7095,160,-25,-24,35.03,0.74,60.55
-118,3663,6910,159,-24,-31,37.25,0.74,60.44
-245,3928,6712,157,-21,-37,39.46,0.64,60.36
-405,4174,6498,155,-17,-43,41.62,0.41,60.30
-594,4436,6321,153,-16,-48,43.77,0.08,60.25
-677,4729,6141,151,-19,-52,45.88,-0.29,60.26
-684,5018,5948,148,-21,-53,47.95,-0.68,60.27
-735,5247,5720,147,-20,-52,50.00,-1.08,60.23
-841,5388,5395,148,-24,-50,52.05,-1.48,60.14
-938,5463,4991,151,-27,-48,54.14,-1.86,59.98
-1034,5547,4552,156,-30,-48,56.31,-2.22,59.73
-1116,5679,4135,160,-31,-49,58.54,-2.62,59.40
-1100,5945,3794,162,-33,-51,60.82,-3.05,58.96
-1001,6277,3481,161,-33,-51,63.09,-3.48,58.43
-859,6611,3135,157,-31,-50,65.33,-3.92,57.73
-720,6893,2840,155,-25,-50,67.53,-4.40,56.75
-681,7115,2577,154,-22,-47,69.71,-4.90,55.44
-716,7288,2313,156,-24,-42,71.90,-5.37,53.77
-752,7428,2014,158,-25,-37,74.12,-5.78,51.65
-808,7565,1722,160,-27,-33,76.37,-6.14,48.96
-888,7752,1471,160,-27,-30,78.62,-6.49,45.53
-933,8005,1280,157,-28,-27,80.83,-6.80,41.33
-894,8315,1120,150,-27,-25,82.95,-7.09,36.23
-841,8624,958,140,-26,-24,84.93,-7.36,30.26
-733,8828,757,130,-24,-22,86.76,-7.61,23.49
-663,8954,557,123,-22,-19,88.48,-7.82,15.81
-651,8974,352,117,-22,-12,90.11,-172.04,7.33
-700,8930,196,111,-22,-6,91.66,-171.97,-1.62
-820,8837,66,103,-25,-2,93.09,-171.94,-10.47
-947,8694,-47,94,-27,-1,94.40,-171.90,-18.80
-1099,8498,-182,85,-29,-1,95.56,-171.85,-26.32
-1234,8270,-403,76,-34,-1,96.59,-171.77,-33.17
-1325,8036,-802,66,-38,-2,97.50,-171.66,-39.39
-1403,7788,-1275,59,-35,-7,98.36,-171.50,-45.00
-1493,7676,-1651,54,-30,-12,99.15,-171.26,-49.69
-1543,7784,-1835,48,-27,-14,99.88,-171.00,-53.52
-1508,8087,-1899,38,-27,-12,100.44,-170.75,-56.65
-1383,8451,-1970,24,-24,-10,100.80,-170.57,-59.06
-1254,8802,-2053,9,-19,-9,100.97,-170.43,-60.62
-1195,9084,-2132,-3,-16,-8,100.96,-170.33,-61.52
-1145,9294,-2227,-13,-12,-5,100.82,-170.26,-61.95
-1113,9454,-2316,-24,-7,-1,100.54,-170.26,-61.82
-1150,9533,-2396,-35,-1,2,100.14,-170.31,-60.97
-1267,9571,-2403,-44,5,6,99.62,-170.41,-59.30
-1414,9600,-2301,-54,10,11,98.96,-170.57,-56.71
-1515,9656,-2084,-65,13,15,98.14,-170.78,-53.04
-1525,9745,-1809,-79,15,17,97.12,-171.04,-47.85
-1454,9815,-1524,-97,18,20,95.84,-171.34,-40.22
-1338,9816,-1286,-116,21,23,94.31,-171.71,-29.21
-1295,9718,-1107,-132,23,25,92.57,-172.10,-14.60
-1306,9463,-975,-143,23,29,90.67,-172.51,1.89
-1375,9144,-853,-150,22,34,88.67,-7.05,17.26
-1480,8759,-770,-154,17,39,86.61,-6.56,29.78
-1536,8329,-725,-157,17,42,84.52,-6.05,39.22
-1566,7921,-614,-158,23,43,82.43,-5.54,45.85
-1571,7586,-396,-159,28,42,80.31,-5.06,50.43
-1535,7360,-51,-162,32,41,78.14,-4.62,53.78
-1391,7227,384,-168,36,41,75.88,-4.21,56.31
-1251,7188,856,-178,41,43,73.48,-3.80,58.21
-1183,7183,1284,-189,42,46,70.93,-3.39,59.72
-1303,7166,1633,-197,39,49,68.25,-2.99,60.97
-1540,7034,1943,-199,28,48,65.51,-2.62,62.16
-1687,6747,2151,-197,17,45,62.78,-2.25,63.35
-1748,6385,2305,-192,11,42,60.11,-1.91,64.41
-1720,6064,2465,-187,10,38,57.51,-1.59,65.32
-1584,5826,2658,-182,11,34,54.99,-1.34,66.05
-1338,5668,2920,-179,18,28,52.51,-1.18,66.60
-1056,5554,3266,-177,27,24,50.05,-1.14,66.99
-831,5471,3685,-176,35,24,47.61,-1.20,67.19
-692,5402,4151,-173,38,26,45.19,-1.31,67.27
-395,1447,8061,5,-1,0,10.28,-2.74,63.77
-374,1437,8039,6,0,0,10.36,-2.73,63.75
-365,1426,8003,6,0,0,10.45,-2.73,63.73
-352,1406,7974,7,1,0,10.54,-2.74,63.72
-348,1401,7964,9,1,-1,10.66,-2.76,63.70
-357,1411,7967,10,1,-1,10.80,-2.78,63.69
-358,1440,7992,12,1,-1,10.97,-2.80,63.69
-353,1494,8020,13,0,-1,11.16,-2.81,63.68
-341,1555,8048,15,0,-2,11.37,-2.82,63.68
-314,1605,8068,16,0,-2,11.60,-2.81,63.68
-283,1639,8077,17,-1,-2,11.85,-2.81,63.68
-238,1669,8079,19,0,-2,12.12,-2.80,63.69
-189,1693,8079,21,-1,-2,12.41,-2.78,63.69
-127,1725,8063,23,-1,-3,12.74,-2.76,63.69
-80,1762,8039,25,0,-3,13.09,-2.74,63.70
-29,1795,8075,28,0,-4,13.48,-2.74,63.71
13,1812,8087,31,1,-4,13.90,-2.73,63.72
18,1810,8100,35,0,-4,14.37,-2.72,63.72
23,1774,8069,41,-1,-4,14.90,-2.70,63.72
43,1725,7990,47,0,-5,15.52,-2.69,63.72
32,1698,7932,55,2,-7,16.23,-2.72,63.72
-21,1694,7875,63,2,-8,17.05,-2.77,63.73
-57,1694,7771,71,1,-11,17.98,-2.83,63.76
-103,1684,7617,81,2,-15,19.04,-2.91,63.80
-139,1694,7492,91,6,-19,20.23,-3.04,63.87
-224,1769,7446,102,8,-23,21.56,-3.26,63.95
-341,1874,7427,113,7,-26,23.06,-3.50,64.04
-445,2007,7396,124,4,-27,24.69,-3.73,64.13
-506,2162,7324,133,3,-27,26.47,-3.94,64.17
-602,2360,7269,141,2,-28,28.35,-4.16,64.19
-702,2607,7188,148,-1,-29,30.34,-4.38,64.18
-769,2852,7066,153,-3,-31,32.41,-4.60,64.16
-838,3102,6929,157,-3,-33,34.53,-4.83,64.11
-961,3332,6747,159,-5,-34,36.69,-5.08,64.04
-1054,3589,6607,160,-9,-37,38.86,-5.35,63.99
-1144,3825,6447,160,-13,-40,41.03,-5.61,63.96
-1261,4062,6230,160,-13,-45,43.19,-5.93,63.96
-1407,4337,5985,159,-14,-50,45.35,-6.32,63.99
-1504,4647,5728,159,-15,-56,47.50,-6.78,64.06
-1551,5016,5528,156,-12,-61,49.63,-7.33,64.14
-1585,5408,5377,152,-12,-63,51.69,-7.93,64.22
-1572,5772,5213,148,-15,-62,53.70,-8.54,64.28
-1495,6078,4960,145,-20,-60,55.65,-9.09,64.35
-1388,6313,4651,143,-19,-57,57.58,-9.60,64.35
-1312,6482,4277,143,-17,-53,59.52,-10.11,64.19
-1298,6597,3891,146,-17,-48,61.51,-10.58,63.85
-1277,6642,3443,150,-18,-43,63.55,-11.00,63.30
-1248,6682,2971,155,-15,-40,65.68,-11.41,62.49
-1241,6781,2574,159,-13,-37,67.90,-11.80,61.31
-1259,6990,2260,160,-10,-35,70.15,-12.18,59.76
-1314,7292,2021,157,-6,-34,72.39,-12.59,57.80
-1348,7661,1863,150,0,-33,74.56,-13.01,55.37
-1387,8040,1759,141,2,-30,76.60,-13.39,52.54
-1469,8310,1640,132,3,-26,78.52,-13.73,49.36
-1570,8409,1490,124,5,-21,80.32,-14.02,45.79
-1730,8375,1334,119,5,-17,82.03,-14.26,41.82
-1954,8243,1145,116,-1,-11,83.68,-14.45,37.49
-2147,8060,890,115,-5,-6,85.30,-14.58,32.70
-2303,7892,574,115,-10,-3,86.91,-14.66,27.24
-2391,7774,220,115,-11,0,88.54,-14.69,20.96
-2407,7768,-93,113,-9,1,90.16,-165.30,13.98
-2357,7865,-328,107,-7,1,91.71,-165.30,6.68
-2297,8017,-469,98,-3,0,93.14,-165.32,-0.28
-2256,8205,-536,87,-2,1,94.41,-165.34,-6.51
-2214,8403,-596,75,-2,3,95.51,-165.38,-11.82
-2168,8632,-654,62,0,4,96.42,-165.45,-16.09
-2149,8871,-690,49,-1,5,97.14,-165.55,-19.39
-2152,9076,-768,36,-3,7,97.66,-165.66,-21.85
-2157,9207,-907,23,-4,9,98.00,-165.80,-23.62
-2203,9305,-1044,12,-2,9,98.20,-165.94,-24.65
-2268,9401,-1180,0,-1,9,98.24,-166.06,-24.99
-2360,9471,-1307,-12,2,10,98.15,-166.20,-24.67
-2492,9529,-1386,-21,4,11,97.91,-166.35,-23.70
-2607,9584,-1415,-30,5,11,97.56,-166.49,-22.20
-2726,9647,-1376,-38,6,13,97.09,-166.65,-20.09
-2829,9743,-1292,-47,5,15,96.47,-166.82,-17.43
-2847,9817,-1230,-58,4,16,95.72,-167.01,-14.12
-2848,9856,-1137,-69,7,16,94.81,-167.22,-10.00
-2870,9814,-1041,-80,4,17,93.75,-167.44,-5.09
-2807,9623,-1048,-88,0,19,92.57,-167.66,0.29
-2695,9354,-1046,-93,3,20,91.35,-167.91,5.85
-2578,9093,-983,-95,2,23,90.08,-168.20,11.42
-2442,8846,-871,-97,0,29,88.78,-11.44,16.81
-2288,8608,-733,-99,-1,35,87.46,-10.98,21.87
-2180,8389,-508,-101,-2,40,86.10,-10.46,26.64
-2093,8207,-268,-105,-5,43,84.66,-9.88,31.26
-1951,8050,-53,-112,-8,45,83.15,-9.26,35.69
-1791,7908,82,-121,-9,44,81.52,-8.64,39.97
-1658,7743,126,-131,-8,44,79.77,-8.02,44.00
-1584,7542,136,-139,-5,41,77.93,-7.44,47.64
-1571,7303,129,-144,-2,38,76.01,-6.93,50.82
-1595,7005,145,-145,0,34,74.09,-6.50,53.53
-1606,6685,202,-143,1,30,72.18,-6.14,55.80
-1540,6405,304,-139,1,27,70.32,-5.82,57.71
-1365,6201,492,-136,2,24,68.50,-5.54,59.34
-1100,6087,786,-135,4,22,66.68,-5.27,60.74
-821,6103,1176,-136,5,23,64.85,-5.00,61.92
-529,6204,1617,-140,6,27,62.96,-4.67,62.92
-270,6298,2046,-145,9,32,61.00,-4.28,63.72
-462,1293,8138,4,-2,0,9.62,-3.18,63.96
-473,1324,8154,5,-4,1,9.68,-3.14,63.94
-499,1352,8159,5,-5,1,9.77,-3.08,63.92
-522,1372,8144,6,-5,0,9.86,-3.04,63.91
-522,1385,8125,7,-4,-1,9.95,-2.99,63.91
-504,1406,8104,7,-4,-2,10.05,-2.95,63.92
-467,1443,8094,8,-4,-2,10.17,-2.91,63.94
-418,1493,8084,9,-3,-1,10.30,-2.87,63.95
-365,1536,8084,10,-3,0,10.44,-2.82,63.95
-336,1571,8100,11,-3,1,10.61,-2.77,63.93
-324,1589,8122,12,-4,2,10.79,-2.71,63.88
-322,1583,8147,14,-4,3,10.99,-2.65,63.82
-330,1572,8167,16,-4,4,11.21,-2.59,63.76
-345,1569,8190,17,-4,3,11.45,-2.54,63.70
-354,1588,8212,19,-4,3,11.71,-2.48,63.63
-342,1644,8246,20,-4,2,12.00,-2.43,63.58
-318,1720,8286,21,-4,2,12.29,-2.38,63.53
-289,1794,8317,21,-5,2,12.60,-2.31,63.48
-262,1831,8328,21,-5,3,12.91,-2.22,63.41
-232,1832,8298,22,-5,3,13.22,-2.14,63.34
-170,1796,8245,23,-5,2,13.54,-2.06,63.29
-146,1773,8217,25,-2,0,13.88,-2.01,63.25
-151,1770,8227,28,-2,-1,14.25,-1.99,63.21
-148,1790,8250,32,-3,0,14.67,-1.95,63.18
-137,1837,8263,36,-5,0,15.15,-1.89,63.14
-126,1910,8247,40,-7,1,15.69,-1.80,63.07
-103,1981,8190,45,-9,2,16.31,-1.67,62.99
-52,2042,8083,51,-11,3,17.00,-1.50,62.90
43,2091,7935,56,-10,3,17.76,-1.32,62.79
118,2109,7747,61,-6,2,18.59,-1.19,62.66
157,2082,7552,67,-1,-1,19.49,-1.14,62.53
158,2058,7429,77,6,-4,20.51,-1.20,62.40
111,2102,7417,88,9,-5,21.68,-1.33,62.25
26,2171,7435,97,7,-4,22.98,-1.45,62.05
-29,2288,7463,106,2,-2,24.39,-1.51,61.82
-108,2433,7460,112,-3,-2,25.91,-1.50,61.56
-178,2611,7447,115,-8,-3,27.48,-1.46,61.31
-227,2802,7382,116,-12,-3,29.08,-1.35,61.04
-244,2937,7201,114,-13,-5,30.66,-1.22,60.79
-308,3019,6985,114,-7,-11,32.23,-1.19,60.57
-432,3053,6773,117,-3,-18,33.81,-1.30,60.38
-543,3137,6610,124,-2,-23,35.47,-1.49,60.21
-664,3290,6500,133,-4,-23,37.26,-1.69,60.00
-777,3490,6361,143,-13,-20,39.18,-1.80,59.72
-880,3677,6158,152,-25,-16,41.23,-1.77,59.41
-820,3999,5944,157,-28,-15,43.39,-1.65,59.02
-771,4393,5849,155,-27,-15,45.57,-1.54,58.56
-767,4804,5770,147,-28,-16,47.65,-1.46,58.10
-809,5152,5698,138,-27,-20,49.61,-1.45,57.68
-871,5387,5559,129,-28,-25,51.43,-1.51,57.35
-967,5554,5327,123,-29,-30,53.15,-1.63,57.11
-1012,5618,4999,122,-31,-34,54.84,-1.81,56.92
-1058,5623,4571,125,-32,-36,56.56,-2.02,56.71
-1047,5600,4048,134,-34,-35,58.41,-2.23,56.39
-976,5672,3572,149,-35,-32,60.47,-2.41,55.81
-906,5915,3204,161,-38,-25,62.73,-2.52,54.90
-768,6352,2967,166,-40,-19,65.09,-2.54,53.66
-582,6890,2824,161,-39,-17,67.40,-2.52,52.18
-465,7332,2729,151,-37,-17,69.58,-2.52,50.54
-405,7603,2560,141,-40,-17,71.60,-2.55,48.86
-338,7713,2219,135,-41,-19,73.53,-2.61,47.10
-332,7776,1795,132,-36,-20,75.44,-2.72,44.92
-320,7883,1364,130,-33,-22,77.33,-2.88,42.31
-305,8058,982,129,-27,-24,79.22,-3.12,39.11
-237,8274,682,125,-21,-24,81.06,-3.37,35.23
-146,8499,441,122,-18,-20,82.85,-3.59,30.68
-35,8754,227,118,-18,-15,84.58,-3.74,25.48
82,9002,53,111,-14,-11,86.22,-3.83,19.77
142,9305,-36,100,-10,-9,87.71,-3.89,13.89
177,9595,-85,86,-4,-8,89.00,-3.94,8.40
147,9793,-115,71,1,-7,90.06,-176.01,3.70
59,9867,-153,57,2,-5,90.92,-175.98,-0.14
-81,9810,-245,47,0,-1,91.64,-175.98,-3.32
-244,9671,-395,40,-3,4,92.24,-176.03,-6.08
-377,9499,-589,35,-5,6,92.78,-176.11,-8.62
-471,9358,-749,30,-4,7,93.26,-176.20,-10.86
-507,9300,-827,23,-2,8,93.64,-176.31,-12.65
-480,9319,-829,13,1,9,93.88,-176.45,-13.83
-441,9364,-803,-1,4,9,93.94,-176.60,-14.14
-412,9383,-798,-17,8,9,93.78,-176.75,-13.47
-415,9359,-794,-33,14,7,93.40,-176.89,-11.79
-481,9315,-773,-48,20,6,92.81,-177.00,-9.09
-587,9229,-734,-61,20,5,92.02,-177.07,-5.64
-723,9073,-732,-72,18,6,91.10,-177.14,-1.71
-856,8857,-772,-79,17,7,90.08,-177.21,2.48
-929,8636,-779,-83,16,7,89.00,-2.73,6.72
-927,8483,-702,-86,15,7,87.87,-2.66,10.93
-858,8430,-539,-91,14,10,86.66,-2.56,15.14
-758,8432,-371,-98,12,15,85.36,-2.39,19.34
-658,8411,-218,-107,14,19,83.93,-2.16,23.52
-622,8330,-83,-117,18,22,82.38,-1.89,27.55
-658,8196,59,-125,21,22,80.72,-1.65,31.36
-751,8043,208,-132,23,21,78.96,-1.44,34.90
-879,7824,384,-137,23,17,77.11,-1.30,38.18
-964,7590,585,-139,20,11,75.22,-1.25,41.25
-999,7406,827,-142,17,6,73.29,-1.27,44.10
-958,7289,1099,-145,14,2,71.31,-1.33,46.76
-824,7246,1428,-147,12,-1,69.30,-1.41,49.24
-611,7305,1813,-149,10,-1,67.25,-1.47,51.49
-305,936,8143,2,-2,7,6.72,-2.13,54.89
-292,948,8142,3,-2,7,6.77,-2.10,54.77
-288,958,8145,4,-1,8,6.84,-2.08,54.66
-292,957,8167,4,0,8,6.91,-2.06,54.54
-310,948,8198,5,0,8,6.98,-2.06,54.42
-349,944,8224,5,0,7,7.05,-2.06,54.31
-382,940,8245,5,0,6,7.13,-2.06,54.22
-393,959,8262,5,-1,5,7.20,-2.06,54.13
-385,988,8287,5,-1,5,7.29,-2.06,54.05
-377,1012,8304,5,-1,5,7.37,-2.04,53.96
-378,1031,8309,5,-1,5,7.45,-2.02,53.89
-372,1051,8311,5,-1,4,7.52,-2.00,53.81
-363,1077,8311,4,-2,4,7.59,-1.98,53.75
-354,1090,8300,4,-2,4,7.67,-1.96,53.69
-330,1107,8274,4,-3,4,7.73,-1.92,53.62
-297,1120,8230,4,-2,4,7.80,-1.88,53.56
-261,1128,8185,4,-2,4,7.87,-1.85,53.50
-232,1152,8156,5,-2,4,7.94,-1.81,53.43
-204,1170,8145,5,-2,5,8.03,-1.78,53.35
-187,1179,8134,6,-3,7,8.12,-1.73,53.25
-176,1169,8112,7,-3,9,8.23,-1.67,53.12
-172,1145,8090,9,-3,10,8.35,-1.61,52.97
-197,1095,8062,10,-3,10,8.49,-1.56,52.82
-247,1040,8031,13,-3,10,8.66,-1.51,52.67
-272,988,8029,16,-5,10,8.87,-1.44,52.51
-277,965,8012,19,-6,9,9.12,-1.34,52.36
-275,965,7990,22,-6,9,9.41,-1.25,52.22
-257,972,7939,24,-6,8,9.74,-1.15,52.08
-233,969,7858,27,-5,6,10.10,-1.07,51.96
-168,951,7751,32,-4,4,10.51,-0.99,51.87
-83,957,7645,38,-2,4,10.99,-0.94,51.76
-36,985,7548,46,-2,4,11.59,-0.90,51.65
-29,982,7423,57,-4,5,12.32,-0.83,51.51
7,1015,7350,70,-2,6,13.24,-0.78,51.33
41,1105,7395,83,-2,8,14.33,-0.71,51.09
23,1302,7532,93,-5,13,15.59,-0.62,50.77
26,1558,7726,99,-9,17,16.94,-0.45,50.37
-3,1838,7925,101,-12,19,18.36,-0.22,49.91
-40,2101,8045,102,-16,17,19.78,0.05,49.45
-64,2330,8054,103,-19,15,21.22,0.34,49.02
-80,2490,7911,107,-23,12,22.70,0.68,48.61
-33,2598,7726,114,-27,9,24.26,1.06,48.21
42,2728,7613,123,-26,9,25.94,1.44,47.76
66,2906,7564,130,-30,11,27.71,1.86,47.26
128,3118,7442,135,-36,14,29.57,2.38,46.67
266,3371,7329,135,-33,13,31.47,2.90,46.02
328,3648,7327,131,-25,8,33.32,3.29,45.37
265,3908,7378,123,-22,2,35.06,3.57,44.78
124,4138,7443,114,-23,-4,36.68,3.77,44.28
-40,4294,7441,106,-25,-10,38.17,3.90,43.92
-196,4380,7290,102,-29,-19,39.60,3.99,43.70
-308,4404,7041,104,-32,-26,41.04,4.04,43.58
-344,4469,6737,109,-35,-29,42.56,4.07,43.47
-267,4567,6451,114,-36,-32,44.17,4.10,43.35
-153,4752,6221,116,-37,-33,45.82,4.11,43.18
-55,4965,6056,119,-38,-34,47.52,4.11,42.96
10,5236,5953,120,-41,-33,49.24,4.12,42.71
70,5517,5820,120,-46,-31,50.96,4.16,42.42
130,5782,5626,118,-49,-30,52.68,4.23,42.10
200,5970,5289,115,-49,-32,54.37,4.28,41.78
221,6116,4952,115,-44,-36,56.06,4.23,41.43
298,6185,4583,115,-42,-40,57.74,4.09,41.04
392,6238,4195,118,-37,-42,59.47,3.88,40.54
480,6338,3805,121,-36,-41,61.24,3.65,39.90
566,6459,3441,125,-32,-40,63.07,3.38,39.02
560,6583,3164,130,-28,-38,64.96,3.10,37.87
446,6694,3007,135,-29,-36,66.90,2.79,36.51
394,6961,2937,137,-36,-33,68.86,2.52,35.00
439,7323,2898,132,-42,-31,70.77,2.31,33.41
574,7662,2774,121,-41,-33,72.55,2.09,31.83
696,7925,2604,109,-37,-35,74.18,1.83,30.25
801,8058,2322,102,-34,-36,75.67,1.52,28.69
876,8117,1990,98,-31,-34,77.11,1.21,26.99
910,8150,1646,96,-29,-31,78.52,0.92,25.09
945,8115,1309,97,-26,-30,79.96,0.63,22.92
921,8125,1094,97,-24,-26,81.38,0.37,20.50
860,8205,916,95,-25,-22,82.77,0.14,17.93
778,8303,780,90,-26,-21,84.09,-0.07,15.28
670,8437,698,84,-26,-20,85.31,-0.29,12.70
553,8600,641,76,-27,-20,86.42,-0.52,10.24
438,8801,608,66,-28,-19,87.39,-0.74,8.03
336,9003,538,55,-28,-17,88.20,-0.96,6.10
225,9163,416,42,-27,-16,88.84,-1.16,4.55
80,9201,210,32,-25,-16,89.33,-1.37,3.38
-32,9175,-70,25,-23,-13,89.74,-1.56,2.35
-101,9172,-321,20,-19,-9,90.09,-178.31,1.40
-135,9223,-507,15,-16,-5,90.37,-178.23,0.59
-107,9359,-583,7,-10,0,90.55,-178.22,0.03
-90,9556,-543,-5,-6,5,90.55,-178.29,-0.05
-97,9741,-443,-21,-1,10,90.34,-178.44,0.47
-124,9944,-301,-39,2,13,89.87,-1.38,1.79
-150,10125,-183,-61,6,14,89.10,-1.16,4.01
-234,10207,-123,-85,10,11,88.01,-1.00,7.22
-388,10090,-133,-105,10,3,86.64,-0.96,11.31
-563,9812,-189,-120,7,-3,85.06,-1.02,15.91
-685,9473,-301,-128,0,-2,83.38,-1.11,20.65
-708,9156,-385,-130,-5,1,81.66,-1.14,25.21
-643,8895,-405,-131,-10,6,79.93,-1.07,29.49
-566,8684,-288,-130,-9,14,78.21,-0.90,33.34
-524,1135,8130,2,0,5,7.58,-3.97,53.69
-526,1133,8140,2,0,5,7.62,-3.97,53.61
-540,1133,8156,2,0,6,7.67,-3.96,53.53
-552,1136,8163,2,-1,7,7.71,-3.95,53.44
-564,1137,8160,3,-1,7,7.76,-3.93,53.32
-567,1130,8151,3,-2,8,7.82,-3.90,53.21
-561,1124,8144,3,-2,8,7.88,-3.86,53.09
-566,1123,8138,3,-2,8,7.93,-3.82,52.97
-572,1106,8118,3,-3,8,7.99,-3.78,52.84
-573,1087,8097,4,-3,8,8.05,-3.73,52.72
-585,1070,8077,4,-3,8,8.11,-3.68,52.61
-579,1070,8061,4,-3,7,8.18,-3.64,52.50
-552,1087,8055,4,-3,7,8.25,-3.59,52.40
-530,1103,8053,4,-2,6,8.32,-3.55,52.30
-512,1117,8043,3,-1,6,8.38,-3.52,52.21
-503,1128,8036,3,-1,7,8.44,-3.50,52.10
-499,1133,8037,3,0,7,8.49,-3.49,52.01
-502,1144,8046,3,0,7,8.55,-3.49,51.90
-501,1141,8061,4,-1,7,8.61,-3.47,51.79
-509,1149,8070,4,-2,7,8.68,-3.45,51.68
-502,1155,8069,5,-2,7,8.76,-3.41,51.57
-480,1172,8062,6,-1,7,8.85,-3.38,51.47
-462,1183,8065,6,-1,7,8.94,-3.36,51.36
-446,1190,8072,7,-1,7,9.05,-3.34,51.25
-418,1222,8079,8,-1,6,9.16,-3.31,51.14
-392,1254,8098,9,0,7,9.31,-3.29,51.04
-368,1297,8122,10,0,7,9.46,-3.28,50.93
-357,1352,8166,12,0,7,9.63,-3.25,50.81
-346,1397,8207,13,-1,7,9.83,-3.22,50.70
-332,1415,8248,15,-2,7,10.06,-3.18,50.58
-322,1398,8250,19,-2,7,10.31,-3.13,50.45
-282,1353,8202,23,-3,7,10.62,-3.06,50.34
-223,1326,8160,28,-1,6,10.99,-3.02,50.22
-217,1333,8162,33,1,4,11.44,-3.01,50.11
-197,1327,8206,39,2,3,11.95,-3.01,50.02
-248,1344,8247,45,1,3,12.55,-3.02,49.91
-317,1377,8277,54,-1,4,13.25,-3.01,49.79
-353,1433,8254,63,-5,4,14.09,-2.95,49.66
-348,1485,8203,73,-8,5,15.06,-2.84,49.49
-353,1529,8119,84,-10,7,16.18,-2.69,49.28
-308,1558,8017,95,-12,8,17.45,-2.50,49.03
-305,1567,7923,107,-13,8,18.86,-2.29,48.74
-350,1577,7862,118,-15,6,20.42,-2.08,48.43
-459,1627,7855,129,-20,3,22.12,-1.84,48.12
-572,1805,7887,137,-27,0,23.95,-1.54,47.82
-625,2133,7911,141,-33,-3,25.87,-1.20,47.54
-584,2471,7899,141,-39,-7,27.82,-0.79,47.28
-524,2773,7818,138,-40,-12,29.72,-0.39,47.07
-445,3031,7704,133,-37,-18,31.58,-0.07,46.91
-457,3224,7515,130,-34,-24,33.38,0.15,46.82
-550,3295,7268,133,-35,-29,35.20,0.30,46.76
-702,3281,6974,140,-42,-33,37.08,0.43,46.73
-828,3307,6649,151,-47,-36,39.11,0.56,46.70
-875,3484,6403,159,-50,-39,41.29,0.67,46.63
-850,3829,6181,162,-54,-41,43.54,0.77,46.53
-743,4368,6068,158,-54,-44,45.78,0.84,46.42
-558,4920,6044,148,-52,-44,47.91,0.88,46.29
-481,5350,5973,139,-52,-46,49.91,0.87,46.21
-440,5615,5751,134,-57,-46,51.81,0.83,46.19
-410,5706,5344,133,-57,-46,53.69,0.78,46.13
-408,5683,4842,138,-55,-46,55.64,0.68,45.97
-343,5597,4298,147,-57,-46,57.70,0.56,45.65
-265,5613,3751,158,-56,-43,59.92,0.45,45.08
-196,5764,3311,166,-55,-40,62.29,0.32,44.17
-108,6130,3036,170,-55,-36,64.73,0.20,42.96
19,6601,2858,165,-55,-35,67.12,0.08,41.52
106,7033,2672,155,-52,-35,69.40,-0.07,39.95
152,7331,2478,145,-46,-37,71.51,-0.31,38.27
164,7518,2257,136,-42,-37,73.49,-0.60,36.46
119,7571,1943,132,-41,-33,75.39,-0.89,34.40
46,7532,1516,134,-41,-30,77.31,-1.16,31.96
-9,7418,1045,139,-41,-29,79.31,-1.44,28.95
-16,7341,604,145,-41,-27,81.40,-1.70,25.20
7,7397,249,146,-38,-26,83.53,-1.97,20.73
37,7627,88,144,-33,-26,85.62,-2.27,15.62
65,8010,74,134,-29,-25,87.56,-2.55,10.32
69,8367,123,120,-25,-25,89.29,-2.85,5.18
9,8597,174,106,-22,-24,90.80,-176.83,0.46
-134,8628,128,95,-24,-23,92.13,-176.51,-3.84
-334,8504,-73,90,-29,-21,93.39,-176.19,-8.06
-419,8337,-401,88,-31,-21,94.64,-175.86,-12.44
-410,8230,-731,87,-28,-20,95.88,-175.56,-16.87
-385,8230,-992,87,-27,-17,97.12,-175.28,-21.29
-317,8342,-1182,84,-27,-11,98.32,-175.09,-25.59
-265,8523,-1287,78,-26,-5,99.43,-174.98,-29.64
-295,8763,-1337,68,-25,0,100.40,-174.94,-33.17
-342,9037,-1353,55,-23,3,101.17,-174.94,-36.08
-442,9250,-1383,39,-20,4,101.73,-174.96,-38.26
-601,9386,-1437,22,-19,5,102.05,-174.98,-39.74
-705,9413,-1623,7,-19,6,102.17,-175.00,-40.76
-729,9374,-1930,-7,-12,4,102.13,-175.02,-41.20
-743,9359,-2189,-19,-1,0,101.95,-175.03,-40.86
-814,9358,-2340,-31,6,-2,101.62,-175.03,-39.78
-917,9363,-2385,-42,7,0,101.12,-175.03,-38.14
-954,9452,-2334,-54,9,3,100.46,-175.07,-36.00
-912,9603,-2187,-70,12,5,99.57,-175.17,-33.06
-887,9737,-1972,-89,15,7,98.41,-175.30,-29.03
-894,9809,-1743,-108,16,9,96.98,-175.46,-23.79
-1000,9829,-1581,-125,10,12,95.30,-175.62,-17.41
-649,739,8253,4,-2,2,5.80,-3.95,53.92
-610,769,8237,4,-2,2,5.87,-3.91,53.88
-573,808,8224,4,-2,3,5.94,-3.88,53.83
-544,833,8220,5,-3,4,6.02,-3.84,53.77
-529,858,8218,6,-3,4,6.12,-3.79,53.71
-520,873,8207,6,-3,4,6.22,-3.75,53.63
-515,879,8203,7,-3,4,6.32,-3.71,53.56
-530,876,8207,7,-3,4,6.42,-3.68,53.50
-538,873,8213,8,-4,3,6.55,-3.63,53.44
-540,878,8215,10,-4,3,6.68,-3.57,53.39
-526,898,8217,11,-4,3,6.84,-3.52,53.34
-493,932,8226,13,-5,3,7.02,-3.45,53.29
-449,967,8246,14,-5,3,7.22,-3.38,53.24
-391,1010,8261,15,-5,3,7.44,-3.31,53.18
-339,1048,8288,17,-5,4,7.68,-3.23,53.12
-287,1085,8325,19,-5,4,7.95,-3.14,53.04
-241,1123,8371,21,-5,4,8.25,-3.05,52.96
-205,1180,8421,25,-6,4,8.59,-2.94,52.88
-158,1247,8458,28,-7,4,8.98,-2.83,52.80
-112,1326,8522,32,-7,4,9.43,-2.71,52.71
-92,1394,8568,35,-9,5,9.93,-2.57,52.61
-65,1413,8590,41,-12,6,10.48,-2.38,52.50
-34,1420,8567,46,-15,7,11.11,-2.15,52.36
-32,1410,8495,53,-14,6,11.82,-1.92,52.22
-1,1353,8411,60,-14,4,12.62,-1.71,52.10
-5,1254,8344,69,-11,1,13.51,-1.53,52.00
-37,1170,8331,79,-9,0,14.54,-1.39,51.89
-127,1125,8335,89,-9,-3,15.69,-1.28,51.79
-188,1137,8303,99,-12,-7,16.97,-1.17,51.73
-204,1199,8264,108,-15,-12,18.39,-1.04,51.70
-245,1295,8159,116,-16,-15,19.92,-0.91,51.68
-252,1439,8017,125,-19,-18,21.58,-0.77,51.68
-259,1644,7934,133,-19,-21,23.36,-0.64,51.66
-313,1888,7867,141,-22,-21,25.26,-0.51,51.64
-406,2149,7786,148,-25,-21,27.26,-0.36,51.56
-518,2435,7705,154,-30,-21,29.36,-0.19,51.43
-633,2685,7569,159,-37,-21,31.52,0.03,51.28
-731,2907,7393,163,-41,-24,33.75,0.28,51.13
-791,3186,7174,165,-47,-27,36.02,0.52,50.98
-753,3519,6905,165,-51,-30,38.32,0.78,50.86
-607,3837,6571,162,-51,-33,40.61,1.02,50.73
-472,4113,6223,160,-44,-37,42.89,1.15,50.57
-393,4336,5887,159,-40,-40,45.13,1.16,50.38
-437,4490,5550,160,-37,-41,47.38,1.08,50.10
-509,4683,5276,163,-39,-40,49.67,0.96,49.74
-587,4890,5014,167,-48,-37,52.01,0.89,49.30
-603,5096,4649,171,-56,-35,54.43,0.91,48.78
-587,5340,4253,172,-58,-36,56.89,0.93,48.15
-550,5628,3935,170,-55,-39,59.33,0.85,47.40
-554,5959,3728,165,-52,-44,61.71,0.66,46.59
-519,6302,3544,157,-50,-49,63.97,0.35,45.78
-483,6584,3334,148,-48,-53,66.12,-0.04,44.93
-428,6783,3031,141,-47,-56,68.15,-0.51,44.06
-361,6921,2656,137,-44,-58,70.12,-1.04,43.06
-294,7065,2217,135,-42,-58,72.08,-1.61,41.82
-220,7213,1779,136,-40,-56,74.04,-2.19,40.24
-129,7383,1407,137,-38,-54,76.01,-2.76,38.25
-77,7627,1161,137,-38,-48,77.97,-3.29,35.82
-8,7863,952,134,-38,-41,79.90,-3.74,32.90
66,8053,744,130,-34,-33,81.76,-4.09,29.43
47,8165,553,124,-29,-27,83.55,-4.39,25.42
-59,8196,360,120,-26,-23,85.27,-4.66,20.90
-205,8164,139,116,-27,-20,86.94,-4.91,15.96
-386,8046,-90,114,-27,-19,88.57,-5.16,10.54
-489,7897,-344,112,-27,-20,90.17,-174.57,4.74
-563,7811,-599,107,-26,-21,91.72,-174.29,-1.26
-595,7749,-837,100,-23,-24,93.19,-173.96,-7.17
-589,7746,-1042,93,-21,-26,94.55,-173.61,-12.72
-600,7841,-1159,84,-19,-26,95.79,-173.25,-17.70
-609,7975,-1231,74,-20,-24,96.87,-172.91,-22.01
-631,8122,-1312,65,-21,-21,97.81,-172.59,-25.79
-693,8242,-1406,56,-20,-19,98.63,-172.31,-29.05
-808,8296,-1544,49,-20,-17,99.33,-172.05,-31.91
-949,8314,-1703,44,-19,-14,99.98,-171.81,-34.47
-1081,8372,-1872,40,-19,-12,100.56,-171.59,-36.81
-1163,8532,-2009,35,-17,-9,101.08,-171.42,-38.90
-1164,8825,-2061,27,-15,-5,101.50,-171.31,-40.65
-1111,9200,-2066,15,-12,-1,101.75,-171.27,-41.82
-1030,9561,-2087,0,-6,2,101.79,-171.31,-42.25
-1004,9846,-2127,-16,1,4,101.63,-171.41,-41.89
-1057,9992,-2175,-30,7,6,101.28,-171.55,-40.74
-1183,10004,-2208,-41,9,7,100.77,-171.68,-38.96
-1282,9940,-2222,-51,11,9,100.15,-171.83,-36.67
-1366,9856,-2157,-59,13,11,99.40,-172.01,-33.88
-1442,9778,-2034,-67,11,13,98.54,-172.20,-30.57
-1479,9696,-1864,-76,10,17,97.54,-172.44,-26.70
-1492,9611,-1681,-88,9,20,96.37,-172.71,-22.01
-1503,9453,-1535,-100,9,22,95.03,-173.02,-16.39
-1525,9215,-1392,-111,13,24,93.57,-173.33,-9.89
-1608,8927,-1225,-119,17,25,91.98,-173.67,-2.71
-1712,8588,-1049,-124,16,27,90.31,-173.99,4.62
-1727,8259,-899,-126,15,28,88.62,-5.68,11.65
-1665,8020,-735,-127,15,28,86.90,-5.34,18.12
-1528,7877,-584,-131,14,29,85.15,-4.98,24.04
-1367,7791,-445,-137,15,30,83.34,-4.60,29.38
-1247,7700,-333,-143,18,30,81.44,-4.23,34.15
-1204,7559,-208,-149,23,29,79.47,-3.90,38.26
-1310,7370,-39,-151,21,27,77.46,-3.62,41.84
-1463,7113,167,-150,15,25,75.42,-3.40,45.04
-212,861,8070,5,-2,1,7.76,-1.37,52.66
-196,858,8074,6,-2,1,7.84,-1.35,52.64
-189,865,8084,8,-2,1,7.93,-1.31,52.61
-188,881,8093,9,-3,1,8.04,-1.27,52.59
-175,913,8104,10,-4,0,8.17,-1.23,52.58
-141,960,8124,10,-4,-1,8.32,-1.18,52.58
-101,1014,8155,10,-4,-1,8.46,-1.13,52.58
-58,1066,8201,10,-3,-1,8.60,-1.08,52.58
-26,1112,8241,10,-3,0,8.74,-1.04,52.57
-3,1133,8290,10,-3,0,8.88,-0.99,52.56
-14,1159,8335,11,-4,1,9.04,-0.93,52.52
1,1175,8375,13,-6,2,9.22,-0.85,52.48
30,1196,8403,14,-7,2,9.41,-0.75,52.44
72,1236,8424,15,-7,3,9.62,-0.64,52.39
127,1302,8441,16,-7,3,9.85,-0.53,52.33
190,1361,8459,17,-8,3,10.09,-0.40,52.27
265,1398,8454,19,-7,3,10.36,-0.27,52.21
338,1375,8389,22,-8,2,10.65,-0.13,52.15
422,1270,8258,28,-8,1,11.01,0.01,52.10
486,1147,8152,38,-4,-2,11.48,0.11,52.08
501,1046,8078,50,-4,-5,12.09,0.18,52.07
506,978,8031,65,-5,-7,12.90,0.25,52.08
477,938,7971,80,-9,-8,13.92,0.35,52.08
490,985,7938,96,-8,-9,15.16,0.46,52.05
537,1215,8035,108,-10,-9,16.60,0.57,52.00
527,1544,8241,116,-12,-6,18.18,0.72,51.86
475,1901,8478,120,-18,-2,19.83,0.93,51.66
397,2206,8612,122,-25,1,21.52,1.24,51.40
292,2369,8549,123,-31,1,23.22,1.61,51.12
162,2430,8305,125,-29,-3,24.94,1.97,50.86
-65,2399,7981,130,-25,-12,26.71,2.19,50.65
-302,2349,7670,139,-21,-23,28.57,2.26,50.52
-487,2368,7413,147,-17,-33,30.56,2.20,50.45
-662,2534,7220,155,-18,-39,32.67,2.06,50.42
-786,2841,7037,159,-21,-42,34.87,1.89,50.36
-778,3289,6865,160,-23,-43,37.11,1.72,50.28
-705,3805,6695,157,-24,-41,39.35,1.58,50.13
-678,4221,6504,154,-25,-40,41.55,1.43,49.92
-682,4446,6260,153,-29,-39,43.71,1.30,49.68
-724,4496,5933,155,-32,-38,45.87,1.18,49.40
-777,4446,5545,158,-36,-37,48.07,1.08,49.04
-849,4371,5117,164,-41,-37,50.34,0.99,48.61
-920,4381,4744,171,-48,-40,52.71,0.89,48.12
-908,4569,4424,174,-57,-41,55.16,0.82,47.60
-812,4970,4160,174,-59,-43,57.62,0.74,47.02
-635,5475,3936,166,-59,-46,60.03,0.60,46.38
-460,6016,3776,156,-56,-48,62.30,0.40,45.72
-357,6456,3543,145,-53,-48,64.41,0.14,45.02
-310,6740,3215,137,-49,-49,66.40,-0.19,44.28
-309,6905,2834,133,-45,-50,68.33,-0.59,43.39
-380,6991,2417,133,-43,-50,70.25,-1.05,42.32
-413,7062,2004,137,-44,-50,72.21,-1.53,40.97
-404,7180,1624,140,-43,-49,74.22,-2.03,39.26
-372,7406,1259,142,-42,-47,76.27,-2.51,37.08
-316,7713,995,141,-39,-45,78.32,-2.99,34.39
-257,8115,855,139,-39,-42,80.32,-3.47,31.25
-182,8505,747,131,-39,-38,82.19,-3.89,27.78
-50,8724,543,122,-34,-34,83.94,-4.26,23.94
38,8807,250,116,-28,-27,85.62,-4.56,19.54
79,8726,-60,114,-27,-21,87.28,-4.78,14.55
12,8594,-390,115,-29,-18,88.93,-4.99,9.00
-142,8459,-716,114,-26,-17,90.59,-174.81,2.91
-322,8338,-965,112,-25,-16,92.22,-174.58,-3.46
-496,8286,-1135,110,-26,-17,93.81,-174.33,-9.88
-583,8338,-1232,103,-23,-18,95.31,-174.05,-15.98
-636,8504,-1232,93,-17,-18,96.66,-173.78,-21.29
-663,8696,-1182,81,-14,-18,97.83,-173.53,-25.64
-708,8809,-1127,69,-13,-17,98.80,-173.29,-29.14
-799,8834,-1127,58,-14,-13,99.62,-173.08,-32.03
-920,8794,-1199,50,-18,-9,100.30,-172.90,-34.58
-1023,8692,-1400,43,-20,-6,100.91,-172.75,-36.96
-1105,8588,-1652,37,-17,-5,101.45,-172.63,-39.09
-1188,8534,-1834,31,-14,-5,101.92,-172.52,-40.81
-1309,8534,-1962,24,-13,-4,102.30,-172.41,-42.21
-1355,8588,-2085,16,-12,-4,102.56,-172.31,-43.29
-1348,8714,-2142,6,-8,-3,102.70,-172.23,-43.89
-1315,8869,-2148,-6,-3,-2,102.66,-172.21,-43.94
-1300,9030,-2138,-19,1,2,102.46,-172.23,-43.43
-1272,9176,-2114,-31,1,6,102.08,-172.31,-42.44
-1247,9269,-2151,-42,1,11,101.54,-172.47,-41.08
-1289,9279,-2206,-50,0,14,100.89,-172.66,-39.40
-1324,9240,-2293,-58,-4,17,100.15,-172.88,-37.43
-1308,9142,-2420,-66,-2,17,99.31,-173.11,-35.08
-1283,9070,-2437,-74,6,15,98.38,-173.34,-31.88
-1299,9066,-2298,-84,10,14,97.32,-173.55,-27.72
-1296,9096,-2097,-95,12,17,96.08,-173.77,-22.51
-1263,9084,-1887,-106,13,21,94.69,-174.06,-16.39
-1259,9009,-1682,-116,14,25,93.15,-174.41,-9.39
-1292,8873,-1470,-122,12,31,91.52,-174.81,-1.95
-1331,8714,-1296,-126,5,36,89.82,-4.73,5.58
-1335,8517,-1173,-130,1,40,88.07,-4.22,12.97
-1311,8326,-1044,-135,2,41,86.27,-3.68,20.03
-1273,8105,-953,-141,2,40,84.39,-3.15,26.68
-1228,7884,-835,-148,9,36,82.45,-2.68,32.64
-1253,7722,-595,-155,19,32,80.39,-2.30,37.78
-1304,7608,-249,-163,23,29,78.21,-2.00,42.19
-1342,7558,167,-170,24,28,75.90,-1.76,46.00
-1363,7561,634,-176,24,26,73.50,-1.55,49.25
-1273,7610,1184,-182,20,26,70.99,-1.35,52.14
153,1407,7989,9,0,2,11.25,0.59,54.66
135,1416,8012,10,1,2,11.38,0.58,54.61
110,1423,8054,11,1,2,11.54,0.57,54.56
77,1441,8131,13,0,2,11.71,0.56,54.51
55,1447,8204,15,-1,2,11.90,0.57,54.47
48,1446,8268,17,-3,1,12.12,0.60,54.42
56,1453,8321,18,-4,1,12.35,0.64,54.38
78,1478,8359,19,-4,0,12.60,0.68,54.35
123,1516,8410,20,-4,-1,12.86,0.74,54.33
167,1569,8466,21,-5,-3,13.14,0.79,54.33
228,1633,8524,22,-6,-3,13.44,0.87,54.35
314,1687,8566,23,-8,-5,13.76,0.97,54.38
439,1717,8558,26,-11,-6,14.09,1.11,54.43
597,1726,8499,29,-11,-7,14.48,1.26,54.49
714,1718,8436,33,-10,-8,14.91,1.42,54.56
901,1695,8356,41,-11,-9,15.44,1.58,54.63
1019,1697,8256,49,-10,-10,16.07,1.74,54.69
1121,1733,8223,58,-9,-10,16.84,1.88,54.73
1152,1782,8210,68,-12,-8,17.73,2.05,54.73
1112,1831,8181,78,-15,-7,18.76,2.25,54.68
1053,1864,8125,88,-18,-6,19.92,2.47,54.62
961,1910,8044,97,-20,-7,21.22,2.71,54.52
841,1956,7930,107,-22,-9,22.66,2.96,54.42
744,1980,7793,116,-24,-11,24.21,3.20,54.31
586,2058,7666,124,-22,-13,25.87,3.41,54.18
391,2219,7619,131,-25,-15,27.65,3.58,54.04
225,2446,7558,136,-31,-17,29.52,3.79,53.90
109,2687,7393,138,-39,-17,31.43,4.08,53.78
79,2948,7099,138,-42,-18,33.37,4.40,53.64
107,3184,6775,136,-39,-20,35.33,4.68,53.49
55,3392,6452,136,-35,-22,37.27,4.88,53.33
-28,3525,6066,138,-37,-23,39.24,5.03,53.13
-131,3593,5691,143,-33,-25,41.26,5.13,52.87
-293,3651,5377,149,-32,-28,43.37,5.14,52.55
-469,3670,5044,156,-34,-30,45.58,5.11,52.16
-583,3723,4704,161,-36,-34,47.87,5.04,51.73
-683,3845,4352,163,-35,-41,50.21,4.87,51.27
-745,4030,4024,163,-32,-50,52.57,4.56,50.80
-752,4418,3745,158,-33,-57,54.91,4.13,50.34
-678,4884,3545,150,-29,-61,57.15,3.62,49.88
-620,5390,3450,143,-24,-66,59.27,2.99,49.40
-615,5860,3404,136,-25,-70,61.28,2.27,48.94
-711,6233,3292,130,-28,-70,63.19,1.53,48.53
-880,6517,3132,129,-33,-72,65.05,0.76,48.14
-968,6808,2928,129,-39,-75,66.91,-0.05,47.75
-930,7126,2620,128,-42,-76,68.76,-0.87,47.33
-799,7445,2270,125,-39,-76,70.58,-1.70,46.74
-664,7766,1952,122,-34,-74,72.37,-2.52,45.88
-540,8247,1777,120,-29,-70,74.12,-3.34,44.71
-357,8845,1691,111,-25,-62,75.75,-4.07,43.30
-195,9326,1591,99,-20,-54,77.21,-4.71,41.72
-170,9584,1409,90,-14,-47,78.53,-5.26,39.94
-244,9583,1141,87,-10,-42,79.81,-5.78,37.84
-413,9452,835,91,-7,-37,81.14,-6.27,35.24
-588,9229,582,97,-7,-32,82.54,-6.72,32.07
-741,8995,416,104,-10,-26,84.02,-7.09,28.25
-870,8781,273,109,-16,-19,85.56,-7.36,23.81
-1008,8636,84,111,-22,-12,87.12,-7.53,18.73
-1010,8559,-146,108,-24,-12,88.66,-7.69,13.14
-883,8609,-330,100,-16,-14,90.13,-172.15,7.31
-819,8692,-400,87,-9,-16,91.42,-171.99,1.86
-844,8688,-452,75,-10,-17,92.52,-171.77,-2.82
-881,8580,-563,65,-12,-17,93.46,-171.55,-6.89
-923,8458,-716,57,-12,-17,94.30,-171.32,-10.50
-949,8409,-876,50,-9,-18,95.04,-171.08,-13.71
-1016,8442,-989,42,-7,-18,95.68,-170.84,-16.33
-1083,8520,-1091,34,-8,-17,96.21,-170.61,-18.45
-1079,8627,-1159,26,-8,-14,96.62,-170.42,-20.18
-1063,8805,-1193,18,-7,-9,96.90,-170.29,-21.41
-1054,9028,-1194,7,-6,-4,97.05,-170.24,-22.12
-1008,9278,-1193,-4,-5,1,97.02,-170.28,-22.21
-984,9542,-1160,-17,0,7,96.82,-170.42,-21.54
-1048,9760,-1129,-30,2,13,96.44,-170.61,-20.13
-1158,9912,-1109,-42,2,17,95.90,-170.87,-18.03
-1275,9964,-1130,-53,3,19,95.20,-171.16,-15.21
-1365,9929,-1189,-64,6,20,94.39,-171.44,-11.76
-1475,9849,-1179,-73,11,20,93.46,-171.72,-7.62
-1563,9745,-1121,-80,12,20,92.42,-172.00,-2.99
-1603,9674,-976,-87,13,23,91.28,-172.29,1.99
-1625,9646,-728,-95,13,28,90.02,-172.66,7.23
-1684,9625,-427,-102,8,33,88.64,-6.92,12.68
-1737,9606,-104,-110,2,39,87.13,-6.43,18.24
-1764,9558,224,-119,-3,46,85.47,-5.85,23.89
-1728,9470,458,-129,-11,53,83.69,-5.16,29.50
-1631,9322,379,-140,-21,56,81.79,-4.39,35.03
-1374,9046,-28,-149,-18,52,79.82,-3.62,40.15
-1038,8689,-425,-156,3,43,77.83,-2.98,44.27
-813,8339,-599,-158,22,35,75.82,-2.51,47.34
-772,8031,-510,-156,32,33,73.80,-2.18,49.61
-770,7744,-189,-150,28,37,71.80,-1.84,51.41
-733,7539,260,-145,19,43,69.85,-1.43,53.00
-670,7416,793,-143,10,49,67.90,-0.88,54.41
-591,7325,1309,-145,0,55,65.92,-0.22,55.76
-510,7187,1723,-150,-6,60,63.86,0.54,57.06
-480,6990,1981,-155,-12,64,61.73,1.37,58.24
-485,6696,2040,-157,-13,66,59.58,2.22,59.29
-429,6266,2027,-154,-7,64,57.46,3.02,60.09
-330,5789,2014,-146,5,58,55.41,3.68,60.58
-238,5347,2117,-135,19,50,53.48,4.13,60.78
-154,1925,8071,-3,-2,1,13.81,-1.00,59.50
-155,1916,8071,-3,-2,2,13.77,-0.99,59.47
-161,1887,8060,-3,-2,2,13.73,-0.95,59.44
-172,1862,8025,-2,-2,2,13.70,-0.92,59.41
-178,1844,8013,-1,-2,1,13.68,-0.90,59.40
-200,1832,8013,0,-3,1,13.68,-0.87,59.38
-211,1829,8025,2,-5,0,13.70,-0.83,59.38
-189,1838,8013,3,-6,0,13.73,-0.76,59.38
-149,1861,7987,3,-5,-1,13.78,-0.70,59.39
-95,1904,7969,3,-5,-2,13.83,-0.64,59.41
-32,1938,7956,3,-3,-2,13.89,-0.59,59.43
2,1957,7951,3,-1,-2,13.93,-0.56,59.45
27,1974,7938,3,0,-2,13.99,-0.56,59.47
41,1990,7942,5,1,-3,14.05,-0.58,59.48
57,2011,7944,7,2,-3,14.16,-0.61,59.50
70,2037,7953,11,2,-2,14.30,-0.64,59.49
86,2061,7979,15,1,0,14.51,-0.66,59.46
104,2088,8024,21,-1,2,14.79,-0.63,59.41
128,2082,8049,26,-4,4,15.15,-0.57,59.31
171,2023,7991,32,-5,5,15.57,-0.47,59.19
236,1945,7896,38,-3,4,16.07,-0.39,59.07
282,1912,7851,44,-1,2,16.65,-0.34,58.96
306,1936,7858,50,0,1,17.31,-0.32,58.85
321,1989,7880,56,-2,0,18.06,-0.27,58.74
365,2057,7912,62,-2,0,18.90,-0.22,58.61
387,2184,7993,67,-1,0,19.80,-0.17,58.46
364,2361,8143,70,-2,1,20.76,-0.13,58.29
345,2546,8272,72,-5,1,21.74,-0.05,58.12
296,2649,8344,73,-7,0,22.74,0.05,57.95
218,2714,8310,74,-7,-2,23.75,0.13,57.79
137,2749,8213,76,-7,-6,24.78,0.18,57.68
45,2752,8006,80,-9,-11,25.85,0.21,57.62
-27,2732,7751,87,-7,-16,27.01,0.20,57.59
-118,2725,7542,97,-4,-20,28.29,0.11,57.56
-238,2767,7424,109,-8,-22,29.73,0.01,57.53
-368,2874,7294,120,-14,-22,31.33,-0.03,57.47
-476,3021,7137,129,-20,-22,33.06,-0.02,57.40
-477,3220,6970,136,-25,-25,34.91,0.03,57.33
-465,3507,6851,140,-24,-28,36.84,0.05,57.24
-473,3813,6740,141,-25,-30,38.79,0.05,57.15
-459,4098,6590,140,-28,-31,40.74,0.04,57.05
-460,4288,6286,140,-31,-33,42.69,0.03,56.97
-517,4373,5895,145,-30,-37,44.70,-0.04,56.88
-600,4420,5528,152,-33,-38,46.80,-0.14,56.73
-705,4539,5221,162,-36,-39,49.03,-0.26,56.52
-748,4796,4946,169,-42,-39,51.39,-0.37,56.24
-707,5185,4757,172,-43,-40,53.80,-0.48,55.87
-603,5682,4632,168,-45,-38,56.19,-0.59,55.42
-450,6119,4414,159,-45,-37,58.48,-0.68,54.92
-337,6438,4126,149,-38,-37,60.63,-0.84,54.34
-365,6619,3805,142,-33,-40,62.68,-1.09,53.65
-473,6705,3471,139,-31,-43,64.67,-1.44,52.90
-585,6807,3139,138,-33,-45,66.64,-1.86,52.05
-637,6926,2812,137,-35,-47,68.60,-2.30,51.12
-714,7072,2506,137,-34,-47,70.54,-2.78,50.00
-816,7232,2230,138,-36,-47,72.49,-3.27,48.67
-829,7415,1968,138,-38,-46,74.44,-3.76,47.10
-724,7696,1696,134,-36,-44,76.35,-4.25,45.14
-596,7986,1460,128,-26,-43,78.20,-4.72,42.67
-512,8286,1297,120,-19,-40,79.92,-5.20,39.72
-442,8554,1179,112,-17,-36,81.53,-5.63,36.41
-406,8728,1039,105,-17,-31,83.03,-6.00,32.79
-471,8766,819,98,-17,-25,84.44,-6.31,28.89
-579,8658,529,95,-16,-20,85.81,-6.57,24.47
-718,8448,214,96,-18,-18,87.17,-6.80,19.50
-895,8259,-68,97,-19,-17,88.56,-7.04,13.83
-1019,8148,-308,97,-20,-17,89.94,-7.29,7.58
-1062,8155,-506,93,-19,-17,91.29,-172.47,1.00
-1034,8242,-648,86,-14,-18,92.54,-172.23,-5.40
-991,8365,-727,76,-8,-18,93.66,-171.99,-11.08
-929,8474,-767,66,-5,-16,94.64,-171.78,-15.87
-903,8511,-812,58,-5,-13,95.49,-171.62,-19.92
-924,8490,-909,50,-7,-9,96.23,-171.51,-23.37
-936,8441,-1055,44,-8,-5,96.88,-171.43,-26.43
-974,8408,-1207,38,-7,-3,97.46,-171.39,-29.12
-1039,8376,-1359,33,-7,-1,97.96,-171.38,-31.42
-1130,8352,-1466,28,-7,1,98.40,-171.38,-33.38
-1248,8345,-1514,23,-8,2,98.75,-171.38,-35.06
-1359,8360,-1562,16,-11,3,99.01,-171.39,-36.45
-1395,8394,-1625,9,-10,2,99.17,-171.38,-37.52
-1422,8477,-1610,2,-7,0,99.23,-171.37,-38.08
-1498,8637,-1550,-7,-5,1,99.16,-171.37,-38.09
-1518,8836,-1507,-17,-6,3,98.95,-171.39,-37.60
-1488,9016,-1496,-28,-4,4,98.59,-171.44,-36.55
-1467,9219,-1452,-39,-1,6,98.09,-171.52,-34.73
-1510,9431,-1384,-50,-1,8,97.42,-171.63,-32.12
-1588,9680,-1271,-61,-6,9,96.59,-171.74,-28.73
-1611,9873,-1183,-73,-15,11,95.58,-171.85,-24.51
-1585,9996,-1136,-86,-18,12,94.39,-171.99,-19.01
-1518,10039,-1061,-97,-19,13,93.05,-172.17,-11.87
-1451,10016,-1036,-108,-23,17,91.56,-172.39,-2.86
-1348,9897,-1162,-118,-22,21,89.97,-7.32,7.56
-1192,9666,-1344,-124,-14,24,88.33,-6.97,18.38
-1064,9347,-1428,-125,-1,27,86.70,-6.57,27.93
-1059,9033,-1358,-124,10,34,85.08,-6.12,35.45
-1165,8742,-1130,-121,11,42,83.49,-5.60,41.16
-1313,8479,-772,-117,4,50,81.92,-4.99,45.76
-1401,8318,-320,-116,-4,55,80.34,-4.29,49.76
-1383,8278,228,-119,-12,59,78.71,-3.52,53.47
303,971,8172,1,0,0,6.10,1.57,61.94
303,976,8164,2,1,1,6.14,1.56,61.92
301,975,8167,2,2,0,6.18,1.53,61.90
275,968,8193,4,2,1,6.24,1.50,61.88
240,958,8231,5,0,1,6.31,1.48,61.86
220,950,8264,6,-2,2,6.40,1.49,61.82
225,965,8294,7,-3,2,6.50,1.52,61.79
242,984,8323,7,-4,1,6.60,1.57,61.77
273,1005,8322,6,-4,2,6.70,1.62,61.74
314,1014,8310,6,-4,2,6.78,1.68,61.70
353,1018,8300,5,-3,2,6.87,1.73,61.67
375,1007,8290,6,-3,3,6.95,1.79,61.63
395,973,8251,7,-4,3,7.04,1.84,61.58
412,933,8184,8,-3,3,7.15,1.90,61.53
431,895,8124,11,-2,2,7.28,1.94,61.48
428,871,8089,14,-2,2,7.46,1.97,61.44
461,856,8084,17,-3,1,7.68,2.02,61.41
521,845,8059,20,-2,1,7.93,2.07,61.37
573,852,8023,24,0,0,8.25,2.09,61.33
634,870,8017,28,1,-2,8.61,2.10,61.32
686,917,8033,33,2,-3,9.04,2.09,61.32
720,1006,8080,38,2,-4,9.56,2.08,61.32
758,1115,8146,45,-1,-3,10.16,2.09,61.30
787,1230,8212,52,-3,-1,10.87,2.15,61.26
810,1376,8296,59,-5,1,11.68,2.25,61.18
791,1537,8408,65,-9,3,12.57,2.38,61.06
763,1708,8494,69,-14,5,13.54,2.58,60.91
764,1883,8532,72,-16,6,14.55,2.83,60.74
764,2026,8495,71,-17,6,15.57,3.10,60.58
759,2118,8376,71,-14,3,16.57,3.32,60.43
735,2149,8213,70,-9,-2,17.56,3.46,60.33
654,2131,8073,72,-3,-8,18.55,3.50,60.27
528,2136,7963,75,-1,-14,19.57,3.44,60.27
431,2136,7857,80,1,-18,20.66,3.33,60.31
336,2176,7804,85,2,-20,21.80,3.19,60.36
214,2259,7800,91,1,-21,23.04,3.03,60.40
83,2398,7845,97,-4,-20,24.36,2.92,60.43
-9,2566,7848,102,-13,-18,25.75,2.90,60.44
-26,2725,7760,105,-19,-17,27.21,2.98,60.43
4,2853,7577,106,-20,-18,28.69,3.09,60.44
21,2915,7273,107,-18,-20,30.19,3.16,60.44
20,2878,6881,108,-13,-26,31.69,3.14,60.46
-31,2809,6495,113,-5,-34,33.24,2.97,60.50
-163,2805,6244,119,1,-42,34.87,2.62,60.56
-295,2933,6094,126,1,-47,36.59,2.17,60.64
-375,3219,6015,131,-2,-50,38.40,1.72,60.72
-352,3621,5988,133,-6,-50,40.27,1.29,60.80
-304,4061,5926,132,-8,-49,42.14,0.90,60.84
-250,4459,5824,129,-9,-47,43.98,0.53,60.86
-222,4828,5685,126,-11,-45,45.78,0.18,60.83
-200,5174,5554,123,-14,-42,47.55,-0.14,60.78
-211,5457,5446,121,-13,-40,49.26,-0.45,60.66
-289,5666,5331,121,-14,-39,50.97,-0.76,60.50
-372,5850,5136,123,-18,-39,52.69,-1.07,60.32
-414,6019,4890,124,-19,-41,54.43,-1.39,60.13
-430,6247,4700,125,-16,-43,56.20,-1.76,59.87
-453,6530,4597,126,-15,-44,57.97,-2.18,59.54
-453,6875,4581,124,-16,-44,59.71,-2.60,59.16
-472,7218,4557,120,-21,-41,61.39,-2.97,58.79
-460,7471,4431,115,-24,-38,62.99,-3.30,58.42
-452,7641,4203,111,-24,-36,64.54,-3.60,58.00
-490,7728,3918,108,-22,-36,66.07,-3.91,57.49
-582,7747,3631,109,-24,-35,67.58,-4.24,56.90
-699,7701,3317,113,-28,-35,69.13,-4.57,56.27
-755,7624,2980,119,-31,-33,70.77,-4.88,55.46
-773,7559,2616,124,-32,-31,72.47,-5.16,54.39
-746,7544,2258,127,-31,-29,74.25,-5.43,52.96
-669,7607,1931,128,-25,-29,76.05,-5.71,51.02
-591,7740,1726,126,-17,-29,77.84,-6.02,48.43
-570,7885,1601,122,-14,-26,79.56,-6.33,45.34
-604,7992,1465,118,-15,-20,81.23,-6.56,41.71
-619,8013,1230,114,-17,-16,82.83,-6.74,37.55
-657,7940,970,111,-17,-14,84.41,-6.89,32.68
-819,7817,707,109,-19,-14,85.95,-7.05,27.05
-969,7678,437,108,-22,-15,87.47,-7.25,20.64
-1066,7541,178,107,-23,-16,88.98,-7.48,13.24
-1162,7474,-86,105,-23,-17,90.46,-172.27,4.97
-1204,7463,-301,102,-21,-17,91.91,-172.01,-3.87
-1211,7536,-462,98,-20,-17,93.30,-171.76,-12.70
-1226,7644,-627,91,-17,-17,94.60,-171.50,-20.87
-1240,7772,-753,85,-15,-18,95.81,-171.24,-27.97
-1266,7934,-850,78,-12,-17,96.93,-170.98,-33.94
-1291,8090,-960,70,-11,-15,97.93,-170.76,-38.80
-1361,8206,-1088,64,-11,-12,98.84,-170.57,-42.83
-1436,8265,-1224,57,-14,-11,99.65,-170.38,-46.34
-1500,8272,-1393,52,-17,-10,100.38,-170.19,-49.48
-1565,8272,-1575,47,-19,-8,101.04,-170.02,-52.37
-1620,8287,-1757,42,-18,-6,101.65,-169.87,-54.88
-1647,8325,-1901,36,-16,-6,102.17,-169.74,-56.98
-1686,8400,-2008,29,-14,-6,102.60,-169.61,-58.69
-1684,8505,-2079,20,-12,-5,102.91,-169.51,-59.92
-1674,8595,-2125,12,-8,-4,103.10,-169.43,-60.73
-1684,8716,-2124,3,-8,-2,103.18,-169.38,-61.24
-1654,8832,-2138,-5,-9,2,103.12,-169.38,-61.57
-1622,8912,-2214,-15,-7,5,102.94,-169.44,-61.72
-1610,8936,-2338,-24,-2,7,102.66,-169.53,-61.43
-1653,8890,-2442,-32,1,7,102.28,-169.64,-60.64
-1697,8842,-2538,-39,3,8,101.82,-169.75,-59.53
-1740,8811,-2560,-46,4,9,101.26,-169.88,-58.02
-69,1468,8051,8,-1,-1,10.20,-1.08,62.04
-44,1501,8051,9,-1,0,10.33,-1.06,62.03
-29,1533,8061,10,-1,1,10.48,-1.04,62.00
-28,1560,8061,11,-1,2,10.64,-1.01,61.96
-44,1584,8058,12,-2,1,10.82,-0.99,61.92
-50,1621,8062,13,-2,1,11.02,-0.96,61.89
-52,1671,8076,14,-2,1,11.23,-0.93,61.86
-50,1725,8102,16,-3,1,11.47,-0.91,61.82
-28,1772,8122,17,-4,2,11.72,-0.86,61.78
8,1811,8131,18,-3,2,11.98,-0.79,61.73
36,1832,8116,19,-3,2,12.27,-0.74,61.67
52,1827,8105,21,-2,2,12.56,-0.70,61.61
52,1789,8091,24,-2,2,12.88,-0.67,61.55
38,1729,8069,28,-3,2,13.24,-0.62,61.49
11,1674,8053,32,-4,1,13.67,-0.57,61.43
13,1593,8036,39,-5,-1,14.17,-0.51,61.39
-19,1540,8034,46,-5,-2,14.76,-0.45,61.35
-41,1524,8017,54,-9,-4,15.45,-0.36,61.33
-17,1541,7951,63,-13,-6,16.26,-0.23,61.34
77,1604,7870,72,-13,-9,17.21,-0.08,61.38
169,1678,7726,82,-14,-12,18.30,0.06,61.42
305,1750,7520,93,-12,-14,19.54,0.19,61.47
405,1814,7334,106,-8,-16,20.96,0.27,61.48
496,1893,7233,120,-6,-17,22.57,0.31,61.45
472,2014,7211,134,-6,-17,24.36,0.31,61.37
364,2197,7219,145,-11,-16,26.32,0.33,61.24
335,2437,7269,155,-15,-16,28.42,0.41,61.07
244,2746,7318,158,-19,-17,30.60,0.51,60.88
109,3057,7242,159,-25,-19,32.80,0.64,60.70
-29,3376,7095,160,-25,-24,35.03,0.74,60.55
-118,3663,6910,159,-24,-31,37.25,0.74,60.44
-245,3928,6712,157,-21,-37,39.46,0.64,60.36
-405,4174,6498,155,-17,-43,41.62,0.41,60.30
-594,4436,6321,153,-16,-48,43.77,0.08,60.25
-677,4729,6141,151,-19,-52,45.88,-0.29,60.26
-684,5018,5948,148,-21,-53,47.95,-0.68,60.27
-735,5247,5720,147,-20,-52,50.00,-1.08,60.23
-841,5388,5395,148,-24,-50,52.05,-1.48,60.14
-938,5463,4991,151,-27,-48,54.14,-1.86,59.98
-1034,5547,4552,156,-30,-48,56.31,-2.22,59.73
-1116,5679,4135,160,-31,-49,58.54,-2.62,59.40
-1100,5945,3794,162,-33,-51,60.82,-3.05,58.96
-1001,6277,3481,161,-33,-51,63.09,-3.48,58.43
-859,6611,3135,157,-31,-50,65.33,-3.92,57.73
-720,6893,2840,155,-25,-50,67.53,-4.40,56.75
-681,7115,2577,154,-22,-47,69.71,-4.90,55.44
-716,7288,2313,156,-24,-42,71.90,-5.37,53.77
-752,7428,2014,158,-25,-37,74.12,-5.78,51.65
-808,7565,1722,160,-27,-33,76.37,-6.14,48.96
-888,7752,1471,160,-27,-30,78.62,-6.49,45.53
-933,8005,1280,157,-28,-27,80.83,-6.80,41.33
-894,8315,1120,150,-27,-25,82.95,-7.09,36.23
-841,8624,958,140,-26,-24,84.93,-7.36,30.26
-733,8828,757,130,-24,-22,86.76,-7.61,23.49
-663,8954,557,123,-22,-19,88.48,-7.82,15.81
-651,8974,352,117,-22,-12,90.11,-172.04,7.33
-700,8930,196,111,-22,-6,91.66,-171.97,-1.62
-820,8837,66,103,-25,-2,93.09,-171.94,-10.47
-947,8694,-47,94,-27,-1,94.40,-171.90,-18.80
-1099,8498,-182,85,-29,-1,95.56,-171.85,-26.32
-1234,8270,-403,76,-34,-1,96.59,-171.77,-33.17
-1325,8036,-802,66,-38,-2,97.50,-171.66,-39.39
-1403,7788,-1275,59,-35,-7,98.36,-171.50,-45.00
-1493,7676,-1651,54,-30,-12,99.15,-171.26,-49.69
-1543,7784,-1835,48,-27,-14,99.88,-171.00,-53.52
-1508,8087,-1899,38,-27,-12,100.44,-170.75,-56.65
-1383,8451,-1970,24,-24,-10,100.80,-170.57,-59.06
-1254,8802,-2053,9,-19,-9,100.97,-170.43,-60.62
-1195,9084,-2132,-3,-16,-8,100.96,-170.33,-61.52
-1145,9294,-2227,-13,-12,-5,100.82,-170.26,-61.95
-1113,9454,-2316,-24,-7,-1,100.54,-170.26,-61.82
-1150,9533,-2396,-35,-1,2,100.14,-170.31,-60.97
-1267,9571,-2403,-44,5,6,99.62,-170.41,-59.30
-1414,9600,-2301,-54,10,11,98.96,-170.57,-56.71
-1515,9656,-2084,-65,13,15,98.14,-170.78,-53.04
-1525,9745,-1809,-79,15,17,97.12,-171.04,-47.85
-1454,9815,-1524,-97,18,20,95.84,-171.34,-40.22
-1338,9816,-1286,-116,21,23,94.31,-171.71,-29.21
-1295,9718,-1107,-132,23,25,92.57,-172.10,-14.60
-1306,9463,-975,-143,23,29,90.67,-172.51,1.89
-1375,9144,-853,-150,22,34,88.67,-7.05,17.26
-1480,8759,-770,-154,17,39,86.61,-6.56,29.78
-1536,8329,-725,-157,17,42,84.52,-6.05,39.22
-1566,7921,-614,-158,23,43,82.43,-5.54,45.85
-1571,7586,-396,-159,28,42,80.31,-5.06,50.43
-1535,7360,-51,-162,32,41,78.14,-4.62,53.78
-1391,7227,384,-168,36,41,75.88,-4.21,56.31
-1251,7188,856,-178,41,43,73.48,-3.80,58.21
-1183,7183,1284,-189,42,46,70.93,-3.39,59.72
-1303,7166,1633,-197,39,49,68.25,-2.99,60.97
-1540,7034,1943,-199,28,48,65.51,-2.62,62.16
-1687,6747,2151,-197,17,45,62.78,-2.25,63.35
-1748,6385,2305,-192,11,42,60.11,-1.91,64.41
-1720,6064,2465,-187,10,38,57.51,-1.59,65.32
-1584,5826,2658,-182,11,34,54.99,-1.34,66.05
-1338,5668,2920,-179,18,28,52.51,-1.18,66.60
-1056,5554,3266,-177,27,24,50.05,-1.14,66.99
-831,5471,3685,-176,35,24,47.61,-1.20,67.19
-692,5402,4151,-173,38,26,45.19,-1.31,67.27
-395,1447,8061,5,-1,0,10.28,-2.74,63.77
-374,1437,8039,6,0,0,10.36,-2.73,63.75
-365,1426,8003,6,0,0,10.45,-2.73,63.73
-352,1406,7974,7,1,0,10.54,-2.74,63.72
-348,1401,7964,9,1,-1,10.66,-2.76,63.70
-357,1411,7967,10,1,-1,10.80,-2.78,63.69
-358,1440,7992,12,1,-1,10.97,-2.80,63.69
-353,1494,8020,13,0,-1,11.16,-2.81,63.68
-341,1555,8048,15,0,-2,11.37,-2.82,63.68
-314,1605,8068,16,0,-2,11.60,-2.81,63.68
-283,1639,8077,17,-1,-2,11.85,-2.81,63.68
-238,1669,8079,19,0,-2,12.12,-2.80,63.69
-189,1693,8079,21,-1,-2,12.41,-2.78,63.69
-127,1725,8063,23,-1,-3,12.74,-2.76,63.69
-80,1762,8039,25,0,-3,13.09,-2.74,63.70
-29,1795,8075,28,0,-4,13.48,-2.74,63.71
13,1812,8087,31,1,-4,13.90,-2.73,63.72
18,1810,8100,35,0,-4,14.37,-2.72,63.72
23,1774,8069,41,-1,-4,14.90,-2.70,63.72
43,1725,7990,47,0,-5,15.52,-2.69,63.72
32,1698,7932,55,2,-7,16.23,-2.72,63.72
-21,1694,7875,63,2,-8,17.05,-2.77,63.73
-57,1694,7771,71,1,-11,17.98,-2.83,63.76
-103,1684,7617,81,2,-15,19.04,-2.91,63.80
-139,1694,7492,91,6,-19,20.23,-3.04,63.87
-224,1769,7446,102,8,-23,21.56,-3.26,63.95
-341,1874,7427,113,7,-26,23.06,-3.50,64.04
-445,2007,7396,124,4,-27,24.69,-3.73,64.13
-506,2162,7324,133,3,-27,26.47,-3.94,64.17
-602,2360,7269,141,2,-28,28.35,-4.16,64.19
-702,2607,7188,148,-1,-29,30.34,-4.38,64.18
-769,2852,7066,153,-3,-31,32.41,-4.60,64.16
-838,3102,6929,157,-3,-33,34.53,-4.83,64.11
-961,3332,6747,159,-5,-34,36.69,-5.08,64.04
-1054,3589,6607,160,-9,-37,38.86,-5.35,63.99
-1144,3825,6447,160,-13,-40,41.03,-5.61,63.96
-1261,4062,6230,160,-13,-45,43.19,-5.93,63.96
-1407,4337,5985,159,-14,-50,45.35,-6.32,63.99
-1504,4647,5728,159,-15,-56,47.50,-6.78,64.06
-1551,5016,5528,156,-12,-61,49.63,-7.33,64.14
-1585,5408,5377,152,-12,-63,51.69,-7.93,64.22
-1572,5772,5213,148,-15,-62,53.70,-8.54,64.28
-1495,6078,4960,145,-20,-60,55.65,-9.09,64.35
-1388,6313,4651,143,-19,-57,57.58,-9.60,64.35
-1312,6482,4277,143,-17,-53,59.52,-10.11,64.19
-1298,6597,3891,146,-17,-48,61.51,-10.58,63.85
-1277,6642,3443,150,-18,-43,63.55,-11.00,63.30
-1248,6682,2971,155,-15,-40,65.68,-11.41,62.49
-1241,6781,2574,159,-13,-37,67.90,-11.80,61.31
-1259,6990,2260,160,-10,-35,70.15,-12.18,59.76
-1314,7292,2021,157,-6,-34,72.39,-12.59,57.80
-1348,7661,1863,150,0,-33,74.56,-13.01,55.37
-1387,8040,1759,141,2,-30,76.60,-13.39,52.54
-1469,8310,1640,132,3,-26,78.52,-13.73,49.36
-1570,8409,1490,124,5,-21,80.32,-14.02,45.79
-1730,8375,1334,119,5,-17,82.03,-14.26,41.82
-1954,8243,1145,116,-1,-11,83.68,-14.45,37.49
-2147,8060,890,115,-5,-6,85.30,-14.58,32.70
-2303,7892,574,115,-10,-3,86.91,-14.66,27.24
-2391,7774,220,115,-11,0,88.54,-14.69,20.96
-2407,7768,-93,113,-9,1,90.16,-165.30,13.98
-2357,7865,-328,107,-7,1,91.71,-165.30,6.68
-2297,8017,-469,98,-3,0,93.14,-165.32,-0.28
-2256,8205,-536,87,-2,1,94.41,-165.34,-6.51
-2214,8403,-596,75,-2,3,95.51,-165.38,-11.82
-2168,8632,-654,62,0,4,96.42,-165.45,-16.09
-2149,8871,-690,49,-1,5,97.14,-165.55,-19.39
-2152,9076,-768,36,-3,7,97.66,-165.66,-21.85
-2157,9207,-907,23,-4,9,98.00,-165.80,-23.62
-2203,9305,-1044,12,-2,9,98.20,-165.94,-24.65
-2268,9401,-1180,0,-1,9,98.24,-166.06,-24.99
-2360,9471,-1307,-12,2,10,98.15,-166.20,-24.67
-2492,9529,-1386,-21,4,11,97.91,-166.35,-23.70
-2607,9584,-1415,-30,5,11,97.56,-166.49,-22.20
-2726,9647,-1376,-38,6,13,97.09,-166.65,-20.09
-2829,9743,-1292,-47,5,15,96.47,-166.82,-17.43
-2847,9817,-1230,-58,4,16,95.72,-167.01,-14.12
-2848,9856,-1137,-69,7,16,94.81,-167.22,-10.00
-2870,9814,-1041,-80,4,17,93.75,-167.44,-5.09
-2807,9623,-1048,-88,0,19,92.57,-167.66,0.29
-2695,9354,-1046,-93,3,20,91.35,-167.91,5.85
-2578,9093,-983,-95,2,23,90.08,-168.20,11.42
-2442,8846,-871,-97,0,29,88.78,-11.44,16.81
-2288,8608,-733,-99,-1,35,87.46,-10.98,21.87
-2180,8389,-508,-101,-2,40,86.10,-10.46,26.64
-2093,8207,-268,-105,-5,43,84.66,-9.88,31.26
-1951,8050,-53,-112,-8,45,83.15,-9.26,35.69
-1791,7908,82,-121,-9,44,81.52,-8.64,39.97
-1658,7743,126,-131,-8,44,79.77,-8.02,44.00
-1584,7542,136,-139,-5,41,77.93,-7.44,47.64
-1571,7303,129,-144,-2,38,76.01,-6.93,50.82
-1595,7005,145,-145,0,34,74.09,-6.50,53.53
-1606,6685,202,-143,1,30,72.18,-6.14,55.80
-1540,6405,304,-139,1,27,70.32,-5.82,57.71
-1365,6201,492,-136,2,24,68.50,-5.54,59.34
-1100,6087,786,-135,4,22,66.68,-5.27,60.74
-821,6103,1176,-136,5,23,64.85,-5.00,61.92
-529,6204,1617,-140,6,27,62.96,-4.67,62.92
-270,6298,2046,-145,9,32,61.00,-4.28,63.72
-462,1293,8138,4,-2,0,9.62,-3.18,63.96
-473,1324,8154,5,-4,1,9.68,-3.14,63.94
-499,1352,8159,5,-5,1,9.77,-3.08,63.92
-522,1372,8144,6,-5,0,9.86,-3.04,63.91
-522,1385,8125,7,-4,-1,9.95,-2.99,63.91
-504,1406,8104,7,-4,-2,10.05,-2.95,63.92
-467,1443,8094,8,-4,-2,10.17,-2.91,63.94
-418,1493,8084,9,-3,-1,10.30,-2.87,63.95
-365,1536,8084,10,-3,0,10.44,-2.82,63.95
-336,1571,8100,11,-3,1,10.61,-2.77,63.93
-324,1589,8122,12,-4,2,10.79,-2.71,63.88
-322,1583,8147,14,-4,3,10.99,-2.65,63.82
-330,1572,8167,16,-4,4,11.21,-2.59,63.76
-345,1569,8190,17,-4,3,11.45,-2.54,63.70
-354,1588,8212,19,-4,3,11.71,-2.48,63.63
-342,1644,8246,20,-4,2,12.00,-2.43,63.58
-318,1720,8286,21,-4,2,12.29,-2.38,63.53
-289,1794,8317,21,-5,2,12.60,-2.31,63.48
-262,1831,8328,21,-5,3,12.91,-2.22,63.41
-232,1832,8298,22,-5,3,13.22,-2.14,63.34
-170,1796,8245,23,-5,2,13.54,-2.06,63.29
-146,1773,8217,25,-2,0,13.88,-2.01,63.25
-151,1770,8227,28,-2,-1,14.25,-1.99,63.21
-148,1790,8250,32,-3,0,14.67,-1.95,63.18
-137,1837,8263,36,-5,0,15.15,-1.89,63.14
-126,1910,8247,40,-7,1,15.69,-1.80,63.07
-103,1981,8190,45,-9,2,16.31,-1.67,62.99
-52,2042,8083,51,-11,3,17.00,-1.50,62.90
43,2091,7935,56,-10,3,17.76,-1.32,62.79
118,2109,7747,61,-6,2,18.59,-1.19,62.66
157,2082,7552,67,-1,-1,19.49,-1.14,62.53
158,2058,7429,77,6,-4,20.51,-1.20,62.40
111,2102,7417,88,9,-5,21.68,-1.33,62.25
26,2171,7435,97,7,-4,22.98,-1.45,62.05
-29,2288,7463,106,2,-2,24.39,-1.51,61.82
-108,2433,7460,112,-3,-2,25.91,-1.50,61.56
-178,2611,7447,115,-8,-3,27.48,-1.46,61.31
-227,2802,7382,116,-12,-3,29.08,-1.35,61.04
-244,2937,7201,114,-13,-5,30.66,-1.22,60.79
-308,3019,6985,114,-7,-11,32.23,-1.19,60.57
-432,3053,6773,117,-3,-18,33.81,-1.30,60.38
-543,3137,6610,124,-2,-23,35.47,-1.49,60.21
-664,3290,6500,133,-4,-23,37.26,-1.69,60.00
-777,3490,6361,143,-13,-20,39.18,-1.80,59.72
-880,3677,6158,152,-25,-16,41.23,-1.77,59.41
-820,3999,5944,157,-28,-15,43.39,-1.65,59.02
-771,4393,5849,155,-27,-15,45.57,-1.54,58.56
-767,4804,5770,147,-28,-16,47.65,-1.46,58.10
-809,5152,5698,138,-27,-20,49.61,-1.45,57.68
-871,5387,5559,129,-28,-25,51.43,-1.51,57.35
-967,5554,5327,123,-29,-30,53.15,-1.63,57.11
-1012,5618,4999,122,-31,-34,54.84,-1.81,56.92
-1058,5623,4571,125,-32,-36,56.56,-2.02,56.71
-1047,5600,4048,134,-34,-35,58.41,-2.23,56.39
-976,5672,3572,149,-35,-32,60.47,-2.41,55.81
-906,5915,3204,161,-38,-25,62.73,-2.52,54.90
-768,6352,2967,166,-40,-19,65.09,-2.54,53.66
-582,6890,2824,161,-39,-17,67.40,-2.52,52.18
-465,7332,2729,151,-37,-17,69.58,-2.52,50.54
-405,7603,2560,141,-40,-17,71.60,-2.55,48.86
-338,7713,2219,135,-41,-19,73.53,-2.61,47.10
-332,7776,1795,132,-36,-20,75.44,-2.72,44.92
-320,7883,1364,130,-33,-22,77.33,-2.88,42.31
-305,8058,982,129,-27,-24,79.22,-3.12,39.11
-237,8274,682,125,-21,-24,81.06,-3.37,35.23
-146,8499,441,122,-18,-20,82.85,-3.59,30.68
-35,8754,227,118,-18,-15,84.58,-3.74,25.48
82,9002,53,111,-14,-11,86.22,-3.83,19.77
142,9305,-36,100,-10,-9,87.71,-3.89,13.89
177,9595,-85,86,-4,-8,89.00,-3.94,8.40
147,9793,-115,71,1,-7,90.06,-176.01,3.70
59,9867,-153,57,2,-5,90.92,-175.98,-0.14
-81,9810,-245,47,0,-1,91.64,-175.98,-3.32
-244,9671,-395,40,-3,4,92.24,-176.03,-6.08
-377,9499,-589,35,-5,6,92.78,-176.11,-8.62
-471,9358,-749,30,-4,7,93.26,-176.20,-10.86
-507,9300,-827,23,-2,8,93.64,-176.31,-12.65
-480,9319,-829,13,1,9,93.88,-176.45,-13.83
-441,9364,-803,-1,4,9,93.94,-176.60,-14.14
-412,9383,-798,-17,8,9,93.78,-176.75,-13.47
-415,9359,-794,-33,14,7,93.40,-176.89,-11.79
-481,9315,-773,-48,20,6,92.81,-177.00,-9.09
-587,9229,-734,-61,20,5,92.02,-177.07,-5.64
-723,9073,-732,-72,18,6,91.10,-177.14,-1.71
-856,8857,-772,-79,17,7,90.08,-177.21,2.48
-929,8636,-779,-83,16,7,89.00,-2.73,6.72
-927,8483,-702,-86,15,7,87.87,-2.66,10.93
-858,8430,-539,-91,14,10,86.66,-2.56,15.14
-758,8432,-371,-98,12,15,85.36,-2.39,19.34
-658,8411,-218,-107,14,19,83.93,-2.16,23.52
-622,8330,-83,-117,18,22,82.38,-1.89,27.55
-658,8196,59,-125,21,22,80.72,-1.65,31.36
-751,8043,208,-132,23,21,78.96,-1.44,34.90
-879,7824,384,-137,23,17,77.11,-1.30,38.18
-964,7590,585,-139,20,11,75.22,-1.25,41.25
-999,7406,827,-142,17,6,73.29,-1.27,44.10
-958,7289,1099,-145,14,2,71.31,-1.33,46.76
-824,7246,1428,-147,12,-1,69.30,-1.41,49.24
-611,7305,1813,-149,10,-1,67.25,-1.47,51.49
-305,936,8143,2,-2,7,6.72,-2.13,54.89
-292,948,8142,3,-2,7,6.77,-2.10,54.77
-288,958,8145,4,-1,8,6.84,-2.08,54.66
-292,957,8167,4,0,8,6.91,-2.06,54.54
-310,948,8198,5,0,8,6.98,-2.06,54.42
-349,944,8224,5,0,7,7.05,-2.06,54.31
-382,940,8245,5,0,6,7.13,-2.06,54.22
-393,959,8262,5,-1,5,7.20,-2.06,54.13
-385,988,8287,5,-1,5,7.29,-2.06,54.05
-377,1012,8304,5,-1,5,7.37,-2.04,53.96
-378,1031,8309,5,-1,5,7.45,-2.02,53.89
-372,1051,8311,5,-1,4,7.52,-2.00,53.81
-363,1077,8311,4,-2,4,7.59,-1.98,53.75
-354,1090,8300,4,-2,4,7.67,-1.96,53.69
-330,1107,8274,4,-3,4,7.73,-1.92,53.62
-297,1120,8230,4,-2,4,7.80,-1.88,53.56
-261,1128,8185,4,-2,4,7.87,-1.85,53.50
-232,1152,8156,5,-2,4,7.94,-1.81,53.43
-204,1170,8145,5,-2,5,8.03,-1.78,53.35
-187,1179,8134,6,-3,7,8.12,-1.73,53.25
-176,1169,8112,7,-3,9,8.23,-1.67,53.12
-172,1145,8090,9,-3,10,8.35,-1.61,52.97
-197,1095,8062,10,-3,10,8.49,-1.56,52.82
-247,1040,8031,13,-3,10,8.66,-1.51,52.67
-272,988,8029,16,-5,10,8.87,-1.44,52.51
-277,965,8012,19,-6,9,9.12,-1.34,52.36
-275,965,7990,22,-6,9,9.41,-1.25,52.22
-257,972,7939,24,-6,8,9.74,-1.15,52.08
-233,969,7858,27,-5,6,10.10,-1.07,51.96
-168,951,7751,32,-4,4,10.51,-0.99,51.87
-83,957,7645,38,-2,4,10.99,-0.94,51.76
-36,985,7548,46,-2,4,11.59,-0.90,51.65
-29,982,7423,57,-4,5,12.32,-0.83,51.51
7,1015,7350,70,-2,6,13.24,-0.78,51.33
41,1105,7395,83,-2,8,14.33,-0.71,51.09
23,1302,7532,93,-5,13,15.59,-0.62,50.77
26,1558,7726,99,-9,17,16.94,-0.45,50.37
-3,1838,7925,101,-12,19,18.36,-0.22,49.91
-40,2101,8045,102,-16,17,19.78,0.05,49.45
-64,2330,8054,103,-19,15,21.22,0.34,49.02
-80,2490,7911,107,-23,12,22.70,0.68,48.61
-33,2598,7726,114,-27,9,24.26,1.06,48.21
42,2728,7613,123,-26,9,25.94,1.44,47.76
66,2906,7564,130,-30,11,27.71,1.86,47.26
128,3118,7442,135,-36,14,29.57,2.38,46.67
266,3371,7329,135,-33,13,31.47,2.90,46.02
328,3648,7327,131,-25,8,33.32,3.29,45.37
265,3908,7378,123,-22,2,35.06,3.57,44.78
124,4138,7443,114,-23,-4,36.68,3.77,44.28
-40,4294,7441,106,-25,-10,38.17,3.90,43.92
-196,4380,7290,102,-29,-19,39.60,3.99,43.70
-308,4404,7041,104,-32,-26,41.04,4.04,43.58
-344,4469,6737,109,-35,-29,42.56,4.07,43.47
-267,4567,6451,114,-36,-32,44.17,4.10,43.35
-153,4752,6221,116,-37,-33,45.82,4.11,43.18
-55,4965,6056,119,-38,-34,47.52,4.11,42.96
10,5236,5953,120,-41,-33,49.24,4.12,42.71
70,5517,5820,120,-46,-31,50.96,4.16,42.42
130,5782,5626,118,-49,-30,52.68,4.23,42.10
200,5970,5289,115,-49,-32,54.37,4.28,41.78
221,6116,4952,115,-44,-36,56.06,4.23,41.43
298,6185,4583,115,-42,-40,57.74,4.09,41.04
392,6238,4195,118,-37,-42,59.47,3.88,40.54
480,6338,3805,121,-36,-41,61.24,3.65,39.90
566,6459,3441,125,-32,-40,63.07,3.38,39.02
560,6583,3164,130,-28,-38,64.96,3.10,37.87
446,6694,3007,135,-29,-36,66.90,2.79,36.51
394,6961,2937,137,-36,-33,68.86,2.52,35.00
439,7323,2898,132,-42,-31,70.77,2.31,33.41
574,7662,2774,121,-41,-33,72.55,2.09,31.83
696,7925,2604,109,-37,-35,74.18,1.83,30.25
801,8058,2322,102,-34,-36,75.67,1.52,28.69
876,8117,1990,98,-31,-34,77.11,1.21,26.99
910,8150,1646,96,-29,-31,78.52,0.92,25.09
945,8115,1309,97,-26,-30,79.96,0.63,22.92
921,8125,1094,97,-24,-26,81.38,0.37,20.50
860,8205,916,95,-25,-22,82.77,0.14,17.93
778,8303,780,90,-26,-21,84.09,-0.07,15.28
670,8437,698,84,-26,-20,85.31,-0.29,12.70
553,8600,641,76,-27,-20,86.42,-0.52,10.24
438,8801,608,66,-28,-19,87.39,-0.74,8.03
336,9003,538,55,-28,-17,88.20,-0.96,6.10
225,9163,416,42,-27,-16,88.84,-1.16,4.55
80,9201,210,32,-25,-16,89.33,-1.37,3.38
-32,9175,-70,25,-23,-13,89.74,-1.56,2.35
-101,9172,-321,20,-19,-9,90.09,-178.31,1.40
-135,9223,-507,15,-16,-5,90.37,-178.23,0.59
-107,9359,-583,7,-10,0,90.55,-178.22,0.03
-90,9556,-543,-5,-6,5,90.55,-178.29,-0.05
-97,9741,-443,-21,-1,10,90.34,-178.44,0.47
-124,9944,-301,-39,2,13,89.87,-1.38,1.79
-150,10125,-183,-61,6,14,89.10,-1.16,4.01
-234,10207,-123,-85,10,11,88.01,-1.00,7.22
-388,10090,-133,-105,10,3,86.64,-0.96,11.31
-563,9812,-189,-120,7,-3,85.06,-1.02,15.91
-685,9473,-301,-128,0,-2,83.38,-1.11,20.65
-708,9156,-385,-130,-5,1,81.66,-1.14,25.21
-643,8895,-405,-131,-10,6,79.93,-1.07,29.49
-566,8684,-288,-130,-9,14,78.21,-0.90,33.34
-524,1135,8130,2,0,5,7.58,-3.97,53.69
-526,1133,8140,2,0,5,7.62,-3.97,53.61
-540,1133,8156,2,0,6,7.67,-3.96,53.53
-552,1136,8163,2,-1,7,7.71,-3.95,53.44
-564,1137,8160,3,-1,7,7.76,-3.93,53.32
-567,1130,8151,3,-2,8,7.82,-3.90,53.21
-561,1124,8144,3,-2,8,7.88,-3.86,53.09
-566,1123,8138,3,-2,8,7.93,-3.82,52.97
-572,1106,8118,3,-3,8,7.99,-3.78,52.84
-573,1087,8097,4,-3,8,8.05,-3.73,52.72
-585,1070,8077,4,-3,8,8.11,-3.68,52.61
-579,1070,8061,4,-3,7,8.18,-3.64,52.50
-552,1087,8055,4,-3,7,8.25,-3.59,52.40
-530,1103,8053,4,-2,6,8.32,-3.55,52.30
-512,1117,8043,3,-1,6,8.38,-3.52,52.21
-503,1128,8036,3,-1,7,8.44,-3.50,52.10
-499,1133,8037,3,0,7,8.49,-3.49,52.01
-502,1144,8046,3,0,7,8.55,-3.49,51.90
-501,1141,8061,4,-1,7,8.61,-3.47,51.79
-509,1149,8070,4,-2,7,8.68,-3.45,51.68
-502,1155,8069,5,-2,7,8.76,-3.41,51.57
-480,1172,8062,6,-1,7,8.85,-3.38,51.47
-462,1183,8065,6,-1,7,8.94,-3.36,51.36
-446,1190,8072,7,-1,7,9.05,-3.34,51.25
-418,1222,8079,8,-1,6,9.16,-3.31,51.14
-392,1254,8098,9,0,7,9.31,-3.29,51.04
-368,1297,8122,10,0,7,9.46,-3.28,50.93
-357,1352,8166,12,0,7,9.63,-3.25,50.81
-346,1397,8207,13,-1,7,9.83,-3.22,50.70
-332,1415,8248,15,-2,7,10.06,-3.18,50.58
-322,1398,8250,19,-2,7,10.31,-3.13,50.45
-282,1353,8202,23,-3,7,10.62,-3.06,50.34
-223,1326,8160,28,-1,6,10.99,-3.02,50.22
-217,1333,8162,33,1,4,11.44,-3.01,50.11
-197,1327,8206,39,2,3,11.95,-3.01,50.02
-248,1344,8247,45,1,3,12.55,-3.02,49.91
-317,1377,8277,54,-1,4,13.25,-3.01,49.79
-353,1433,8254,63,-5,4,14.09,-2.95,49.66
-348,1485,8203,73,-8,5,15.06,-2.84,49.49
-353,1529,8119,84,-10,7,16.18,-2.69,49.28
-308,1558,8017,95,-12,8,17.45,-2.50,49.03
-305,1567,7923,107,-13,8,18.86,-2.29,48.74
-350,1577,7862,118,-15,6,20.42,-2.08,48.43
-459,1627,7855,129,-20,3,22.12,-1.84,48.12
-572,1805,7887,137,-27,0,23.95,-1.54,47.82
-625,2133,7911,141,-33,-3,25.87,-1.20,47.54
-584,2471,7899,141,-39,-7,27.82,-0.79,47.28
-524,2773,7818,138,-40,-12,29.72,-0.39,47.07
-445,3031,7704,133,-37,-18,31.58,-0.07,46.91
-457,3224,7515,130,-34,-24,33.38,0.15,46.82
-550,3295,7268,133,-35,-29,35.20,0.30,46.76
-702,3281,6974,140,-42,-33,37.08,0.43,46.73
-828,3307,6649,151,-47,-36,39.11,0.56,46.70
-875,3484,6403,159,-50,-39,41.29,0.67,46.63
-850,3829,6181,162,-54,-41,43.54,0.77,46.53
-743,4368,6068,158,-54,-44,45.78,0.84,46.42
-558,4920,6044,148,-52,-44,47.91,0.88,46.29
-481,5350,5973,139,-52,-46,49.91,0.87,46.21
-440,5615,5751,134,-57,-46,51.81,0.83,46.19
-410,5706,5344,133,-57,-46,53.69,0.78,46.13
-408,5683,4842,138,-55,-46,55.64,0.68,45.97
-343,5597,4298,147,-57,-46,57.70,0.56,45.65
-265,5613,3751,158,-56,-43,59.92,0.45,45.08
-196,5764,3311,166,-55,-40,62.29,0.32,44.17
-108,6130,3036,170,-55,-36,64.73,0.20,42.96
19,6601,2858,165,-55,-35,67.12,0.08,41.52
106,7033,2672,155,-52,-35,69.40,-0.07,39.95
152,7331,2478,145,-46,-37,71.51,-0.31,38.27
164,7518,2257,136,-42,-37,73.49,-0.60,36.46
119,7571,1943,132,-41,-33,75.39,-0.89,34.40
46,7532,1516,134,-41,-30,77.31,-1.16,31.96
-9,7418,1045,139,-41,-29,79.31,-1.44,28.95
-16,7341,604,145,-41,-27,81.40,-1.70,25.20
7,7397,249,146,-38,-26,83.53,-1.97,20.73
37,7627,88,144,-33,-26,85.62,-2.27,15.62
65,8010,74,134,-29,-25,87.56,-2.55,10.32
69,8367,123,120,-25,-25,89.29,-2.85,5.18
9,8597,174,106,-22,-24,90.80,-176.83,0.46
-134,8628,128,95,-24,-23,92.13,-176.51,-3.84
-334,8504,-73,90,-29,-21,93.39,-176.19,-8.06
-419,8337,-401,88,-31,-21,94.64,-175.86,-12.44
-410,8230,-731,87,-28,-20,95.88,-175.56,-16.87
-385,8230,-992,87,-27,-17,97.12,-175.28,-21.29
-317,8342,-1182,84,-27,-11,98.32,-175.09,-25.59
-265,8523,-1287,78,-26,-5,99.43,-174.98,-29.64
-295,8763,-1337,68,-25,0,100.40,-174.94,-33.17
-342,9037,-1353,55,-23,3,101.17,-174.94,-36.08
-442,9250,-1383,39,-20,4,101.73,-174.96,-38.26
-601,9386,-1437,22,-19,5,102.05,-174.98,-39.74
-705,9413,-1623,7,-19,6,102.17,-175.00,-40.76
-729,9374,-1930,-7,-12,4,102.13,-175.02,-41.20
-743,9359,-2189,-19,-1,0,101.95,-175.03,-40.86
-814,9358,-2340,-31,6,-2,101.62,-175.03,-39.78
-917,9363,-2385,-42,7,0,101.12,-175.03,-38.14
-954,9452,-2334,-54,9,3,100.46,-175.07,-36.00
-912,9603,-2187,-70,12,5,99.57,-175.17,-33.06
-887,9737,-1972,-89,15,7,98.41,-175.30,-29.03
-894,9809,-1743,-108,16,9,96.98,-175.46,-23.79
-1000,9829,-1581,-125,10,12,95.30,-175.62,-17.41
-649,739,8253,4,-2,2,5.80,-3.95,53.92
-610,769,8237,4,-2,2,5.87,-3.91,53.88
-573,808,8224,4,-2,3,5.94,-3.88,53.83
-544,833,8220,5,-3,4,6.02,-3.84,53.77
-529,858,8218,6,-3,4,6.12,-3.79,53.71
-520,873,8207,6,-3,4,6.22,-3.75,53.63
-515,879,8203,7,-3,4,6.32,-3.71,53.56
-530,876,8207,7,-3,4,6.42,-3.68,53.50
-538,873,8213,8,-4,3,6.55,-3.63,53.44
-540,878,8215,10,-4,3,6.68,-3.57,53.39
-526,898,8217,11,-4,3,6.84,-3.52,53.34
-493,932,8226,13,-5,3,7.02,-3.45,53.29
-449,967,8246,14,-5,3,7.22,-3.38,53.24
-391,1010,8261,15,-5,3,7.44,-3.31,53.18
-339,1048,8288,17,-5,4,7.68,-3.23,53.12
-287,1085,8325,19,-5,4,7.95,-3.14,53.04
-241,1123,8371,21,-5,4,8.25,-3.05,52.96
-205,1180,8421,25,-6,4,8.59,-2.94,52.88
-158,1247,8458,28,-7,4,8.98,-2.83,52.80
-112,1326,8522,32,-7,4,9.43,-2.71,52.71
-92,1394,8568,35,-9,5,9.93,-2.57,52.61
-65,1413,8590,41,-12,6,10.48,-2.38,52.50
-34,1420,8567,46,-15,7,11.11,-2.15,52.36
-32,1410,8495,53,-14,6,11.82,-1.92,52.22
-1,1353,8411,60,-14,4,12.62,-1.71,52.10
-5,1254,8344,69,-11,1,13.51,-1.53,52.00
-37,1170,8331,79,-9,0,14.54,-1.39,51.89
-127,1125,8335,89,-9,-3,15.69,-1.28,51.79
-188,1137,8303,99,-12,-7,16.97,-1.17,51.73
-204,1199,8264,108,-15,-12,18.39,-1.04,51.70
-245,1295,8159,116,-16,-15,19.92,-0.91,51.68
-252,1439,8017,125,-19,-18,21.58,-0.77,51.68
-259,1644,7934,133,-19,-21,23.36,-0.64,51.66
-313,1888,7867,141,-22,-21,25.26,-0.51,51.64
-406,2149,7786,148,-25,-21,27.26,-0.36,51.56
-518,2435,7705,154,-30,-21,29.36,-0.19,51.43
-633,2685,7569,159,-37,-21,31.52,0.03,51.28
-731,2907,7393,163,-41,-24,33.75,0.28,51.13
-791,3186,7174,165,-47,-27,36.02,0.52,50.98
-753,3519,6905,165,-51,-30,38.32,0.78,50.86
-607,3837,6571,162,-51,-33,40.61,1.02,50.73
-472,4113,6223,160,-44,-37,42.89,1.15,50.57
-393,4336,5887,159,-40,-40,45.13,1.16,50.38
-437,4490,5550,160,-37,-41,47.38,1.08,50.10
-509,4683,5276,163,-39,-40,49.67,0.96,49.74
-587,4890,5014,167,-48,-37,52.01,0.89,49.30
-603,5096,4649,171,-56,-35,54.43,0.91,48.78
-587,5340,4253,172,-58,-36,56.89,0.93,48.15
-550,5628,3935,170,-55,-39,59.33,0.85,47.40
-554,5959,3728,165,-52,-44,61.71,0.66,46.59
-519,6302,3544,157,-50,-49,63.97,0.35,45.78
-483,6584,3334,148,-48,-53,66.12,-0.04,44.93
-428,6783,3031,141,-47,-56,68.15,-0.51,44.06
-361,6921,2656,137,-44,-58,70.12,-1.04,43.06
-294,7065,2217,135,-42,-58,72.08,-1.61,41.82
-220,7213,1779,136,-40,-56,74.04,-2.19,40.24
-129,7383,1407,137,-38,-54,76.01,-2.76,38.25
-77,7627,1161,137,-38,-48,77.97,-3.29,35.82
-8,7863,952,134,-38,-41,79.90,-3.74,32.90
66,8053,744,130,-34,-33,81.76,-4.09,29.43
47,8165,553,124,-29,-27,83.55,-4.39,25.42
-59,8196,360,120,-26,-23,85.27,-4.66,20.90
-205,8164,139,116,-27,-20,86.94,-4.91,15.96
-386,8046,-90,114,-27,-19,88.57,-5.16,10.54
-489,7897,-344,112,-27,-20,90.17,-174.57,4.74
-563,7811,-599,107,-26,-21,91.72,-174.29,-1.26
-595,7749,-837,100,-23,-24,93.19,-173.96,-7.17
-589,7746,-1042,93,-21,-26,94.55,-173.61,-12.72
-600,7841,-1159,84,-19,-26,95.79,-173.25,-17.70
-609,7975,-1231,74,-20,-24,96.87,-172.91,-22.01
-631,8122,-1312,65,-21,-21,97.81,-172.59,-25.79
-693,8242,-1406,56,-20,-19,98.63,-172.31,-29.05
-808,8296,-1544,49,-20,-17,99.33,-172.05,-31.91
-949,8314,-1703,44,-19,-14,99.98,-171.81,-34.47
-1081,8372,-1872,40,-19,-12,100.56,-171.59,-36.81
-1163,8532,-2009,35,-17,-9,101.08,-171.42,-38.90
-1164,8825,-2061,27,-15,-5,101.50,-171.31,-40.65
-1111,9200,-2066,15,-12,-1,101.75,-171.27,-41.82
-1030,9561,-2087,0,-6,2,101.79,-171.31,-42.25
-1004,9846,-2127,-16,1,4,101.63,-171.41,-41.89
-1057,9992,-2175,-30,7,6,101.28,-171.55,-40.74
-1183,10004,-2208,-41,9,7,100.77,-171.68,-38.96
-1282,9940,-2222,-51,11,9,100.15,-171.83,-36.67
-1366,9856,-2157,-59,13,11,99.40,-172.01,-33.88
-1442,9778,-2034,-67,11,13,98.54,-172.20,-30.57
-1479,9696,-1864,-76,10,17,97.54,-172.44,-26.70
-1492,9611,-1681,-88,9,20,96.37,-172.71,-22.01
-1503,9453,-1535,-100,9,22,95.03,-173.02,-16.39
-1525,9215,-1392,-111,13,24,93.57,-173.33,-9.89
-1608,8927,-1225,-119,17,25,91.98,-173.67,-2.71
-1712,8588,-1049,-124,16,27,90.31,-173.99,4.62
-1727,8259,-899,-126,15,28,88.62,-5.68,11.65
-1665,8020,-735,-127,15,28,86.90,-5.34,18.12
-1528,7877,-584,-131,14,29,85.15,-4.98,24.04
-1367,7791,-445,-137,15,30,83.34,-4.60,29.38
-1247,7700,-333,-143,18,30,81.44,-4.23,34.15
-1204,7559,-208,-149,23,29,79.47,-3.90,38.26
-1310,7370,-39,-151,21,27,77.46,-3.62,41.84
-1463,7113,167,-150,15,25,75.42,-3.40,45.04
-212,861,8070,5,-2,1,7.76,-1.37,52.66
-196,858,8074,6,-2,1,7.84,-1.35,52.64
-189,865,8084,8,-2,1,7.93,-1.31,52.61
-188,881,8093,9,-3,1,8.04,-1.27,52.59
-175,913,8104,10,-4,0,8.17,-1.23,52.58
-141,960,8124,10,-4,-1,8.32,-1.18,52.58
-101,1014,8155,10,-4,-1,8.46,-1.13,52.58
-58,1066,8201,10,-3,-1,8.60,-1.08,52.58
-26,1112,8241,10,-3,0,8.74,-1.04,52.57
-3,1133,8290,10,-3,0,8.88,-0.99,52.56
-14,1159,8335,11,-4,1,9.04,-0.93,52.52
1,1175,8375,13,-6,2,9.22,-0.85,52.48
30,1196,8403,14,-7,2,9.41,-0.75,52.44
72,1236,8424,15,-7,3,9.62,-0.64,52.39
127,1302,8441,16,-7,3,9.85,-0.53,52.33
190,1361,8459,17,-8,3,10.09,-0.40,52.27
265,1398,8454,19,-7,3,10.36,-0.27,52.21
338,1375,8389,22,-8,2,10.65,-0.13,52.15
422,1270,8258,28,-8,1,11.01,0.01,52.10
486,1147,8152,38,-4,-2,11.48,0.11,52.08
501,1046,8078,50,-4,-5,12.09,0.18,52.07
506,978,8031,65,-5,-7,12.90,0.25,52.08
477,938,7971,80,-9,-8,13.92,0.35,52.08
490,985,7938,96,-8,-9,15.16,0.46,52.05
537,1215,8035,108,-10,-9,16.60,0.57,52.00
527,1544,8241,116,-12,-6,18.18,0.72,51.86
475,1901,8478,120,-18,-2,19.83,0.93,51.66
397,2206,8612,122,-25,1,21.52,1.24,51.40
292,2369,8549,123,-31,1,23.22,1.61,51.12
162,2430,8305,125,-29,-3,24.94,1.97,50.86
-65,2399,7981,130,-25,-12,26.71,2.19,50.65
-302,2349,7670,139,-21,-23,28.57,2.26,50.52
-487,2368,7413,147,-17,-33,30.56,2.20,50.45
-662,2534,7220,155,-18,-39,32.67,2.06,50.42
-786,2841,7037,159,-21,-42,34.87,1.89,50.36
-778,3289,6865,160,-23,-43,37.11,1.72,50.28
-705,3805,6695,157,-24,-41,39.35,1.58,50.13
-678,4221,6504,154,-25,-40,41.55,1.43,49.92
-682,4446,6260,153,-29,-39,43.71,1.30,49.68
-724,4496,5933,155,-32,-38,45.87,1.18,49.40
-777,4446,5545,158,-36,-37,48.07,1.08,49.04
-849,4371,5117,164,-41,-37,50.34,0.99,48.61
-920,4381,4744,171,-48,-40,52.71,0.89,48.12
-908,4569,4424,174,-57,-41,55.16,0.82,47.60
-812,4970,4160,174,-59,-43,57.62,0.74,47.02
-635,5475,3936,166,-59,-46,60.03,0.60,46.38
-460,6016,3776,156,-56,-48,62.30,0.40,45.72
-357,6456,3543,145,-53,-48,64.41,0.14,45.02
-310,6740,3215,137,-49,-49,66.40,-0.19,44.28
-309,6905,2834,133,-45,-50,68.33,-0.59,43.39
-380,6991,2417,133,-43,-50,70.25,-1.05,42.32
-413,7062,2004,137,-44,-50,72.21,-1.53,40.97
-404,7180,1624,140,-43,-49,74.22,-2.03,39.26
-372,7406,1259,142,-42,-47,76.27,-2.51,37.08
-316,7713,995,141,-39,-45,78.32,-2.99,34.39
-257,8115,855,139,-39,-42,80.32,-3.47,31.25
-182,8505,747,131,-39,-38,82.19,-3.89,27.78
-50,8724,543,122,-34,-34,83.94,-4.26,23.94
38,8807,250,116,-28,-27,85.62,-4.56,19.54
79,8726,-60,114,-27,-21,87.28,-4.78,14.55
12,8594,-390,115,-29,-18,88.93,-4.99,9.00
-142,8459,-716,114,-26,-17,90.59,-174.81,2.91
-322,8338,-965,112,-25,-16,92.22,-174.58,-3.46
-496,8286,-1135,110,-26,-17,93.81,-174.33,-9.88
-583,8338,-1232,103,-23,-18,95.31,-174.05,-15.98
-636,8504,-1232,93,-17,-18,96.66,-173.78,-21.29
-663,8696,-1182,81,-14,-18,97.83,-173.53,-25.64
-708,8809,-1127,69,-13,-17,98.80,-173.29,-29.14
-799,8834,-1127,58,-14,-13,99.62,-173.08,-32.03
-920,8794,-1199,50,-18,-9,100.30,-172.90,-34.58
-1023,8692,-1400,43,-20,-6,100.91,-172.75,-36.96
-1105,8588,-1652,37,-17,-5,101.45,-172.63,-39.09
-1188,8534,-1834,31,-14,-5,101.92,-172.52,-40.81
-1309,8534,-1962,24,-13,-4,102.30,-172.41,-42.21
-1355,8588,-2085,16,-12,-4,102.56,-172.31,-43.29
-1348,8714,-2142,6,-8,-3,102.70,-172.23,-43.89
-1315,8869,-2148,-6,-3,-2,102.66,-172.21,-43.94
-1300,9030,-2138,-19,1,2,102.46,-172.23,-43.43
-1272,9176,-2114,-31,1,6,102.08,-172.31,-42.44
-1247,9269,-2151,-42,1,11,101.54,-172.47,-41.08
-1289,9279,-2206,-50,0,14,100.89,-172.66,-39.40
-1324,9240,-2293,-58,-4,17,100.15,-172.88,-37.43
-1308,9142,-2420,-66,-2,17,99.31,-173.11,-35.08
-1283,9070,-2437,-74,6,15,98.38,-173.34,-31.88
-1299,9066,-2298,-84,10,14,97.32,-173.55,-27.72
-1296,9096,-2097,-95,12,17,96.08,-173.77,-22.51
-1263,9084,-1887,-106,13,21,94.69,-174.06,-16.39
-1259,9009,-1682,-116,14,25,93.15,-174.41,-9.39
-1292,8873,-1470,-122,12,31,91.52,-174.81,-1.95
-1331,8714,-1296,-126,5,36,89.82,-4.73,5.58
-1335,8517,-1173,-130,1,40,88.07,-4.22,12.97
-1311,8326,-1044,-135,2,41,86.27,-3.68,20.03
-1273,8105,-953,-141,2,40,84.39,-3.15,26.68
-1228,7884,-835,-148,9,36,82.45,-2.68,32.64
-1253,7722,-595,-155,19,32,80.39,-2.30,37.78
-1304,7608,-249,-163,23,29,78.21,-2.00,42.19
-1342,7558,167,-170,24,28,75.90,-1.76,46.00
-1363,7561,634,-176,24,26,73.50,-1.55,49.25
-1273,7610,1184,-182,20,26,70.99,-1.35,52.14
153,1407,7989,9,0,2,11.25,0.59,54.66
135,1416,8012,10,1,2,11.38,0.58,54.61
110,1423,8054,11,1,2,11.54,0.57,54.56
77,1441,8131,13,0,2,11.71,0.56,54.51
55,1447,8204,15,-1,2,11.90,0.57,54.47
48,1446,8268,17,-3,1,12.12,0.60,54.42
56,1453,8321,18,-4,1,12.35,0.64,54.38
78,1478,8359,19,-4,0,12.60,0.68,54.35
123,1516,8410,20,-4,-1,12.86,0.74,54.33
167,1569,8466,21,-5,-3,13.14,0.79,54.33
228,1633,8524,22,-6,-3,13.44,0.87,54.35
314,1687,8566,23,-8,-5,13.76,0.97,54.38
439,1717,8558,26,-11,-6,14.09,1.11,54.43
597,1726,8499,29,-11,-7,14.48,1.26,54.49
714,1718,8436,33,-10,-8,14.91,1.42,54.56
901,1695,8356,41,-11,-9,15.44,1.58,54.63
1019,1697,8256,49,-10,-10,16.07,1.74,54.69
1121,1733,8223,58,-9,-10,16.84,1.88,54.73
1152,1782,8210,68,-12,-8,17.73,2.05,54.73
1112,1831,8181,78,-15,-7,18.76,2.25,54.68
1053,1864,8125,88,-18,-6,19.92,2.47,54.62
961,1910,8044,97,-20,-7,21.22,2.71,54.52
841,1956,7930,107,-22,-9,22.66,2.96,54.42
744,1980,7793,116,-24,-11,24.21,3.20,54.31
586,2058,7666,124,-22,-13,25.87,3.41,54.18
391,2219,7619,131,-25,-15,27.65,3.58,54.04
225,2446,7558,136,-31,-17,29.52,3.79,53.90
109,2687,7393,138,-39,-17,31.43,4.08,53.78
79,2948,7099,138,-42,-18,33.37,4.40,53.64
107,3184,6775,136,-39,-20,35.33,4.68,53.49
55,3392,6452,136,-35,-22,37.27,4.88,53.33
-28,3525,6066,138,-37,-23,39.24,5.03,53.13
-131,3593,5691,143,-33,-25,41.26,5.13,52.87
-293,3651,5377,149,-32,-28,43.37,5.14,52.55
-469,3670,5044,156,-34,-30,45.58,5.11,52.16
-583,3723,4704,161,-36,-34,47.87,5.04,51.73
-683,3845,4352,163,-35,-41,50.21,4.87,51.27
-745,4030,4024,163,-32,-50,52.57,4.56,50.80
-752,4418,3745,158,-33,-57,54.91,4.13,50.34
-678,4884,3545,150,-29,-61,57.15,3.62,49.88
-620,5390,3450,143,-24,-66,59.27,2.99,49.40
-615,5860,3404,136,-25,-70,61.28,2.27,48.94
-711,6233,3292,130,-28,-70,63.19,1.53,48.53
-880,6517,3132,129,-33,-72,65.05,0.76,48.14
-968,6808,2928,129,-39,-75,66.91,-0.05,47.75
-930,7126,2620,128,-42,-76,68.76,-0.87,47.33
-799,7445,2270,125,-39,-76,70.58,-1.70,46.74
-664,7766,1952,122,-34,-74,72.37,-2.52,45.88
-540,8247,1777,120,-29,-70,74.12,-3.34,44.71
-357,8845,1691,111,-25,-62,75.75,-4.07,43.30
-195,9326,1591,99,-20,-54,77.21,-4.71,41.72
-170,9584,1409,90,-14,-47,78.53,-5.26,39.94
-244,9583,1141,87,-10,-42,79.81,-5.78,37.84
-413,9452,835,91,-7,-37,81.14,-6.27,35.24
-588,9229,582,97,-7,-32,82.54,-6.72,32.07
-741,8995,416,104,-10,-26,84.02,-7.09,28.25
-870,8781,273,109,-16,-19,85.56,-7.36,23.81
-1008,8636,84,111,-22,-12,87.12,-7.53,18.73
-1010,8559,-146,108,-24,-12,88.66,-7.69,13.14
-883,8609,-330,100,-16,-14,90.13,-172.15,7.31
-819,8692,-400,87,-9,-16,91.42,-171.99,1.86
-844,8688,-452,75,-10,-17,92.52,-171.77,-2.82
-881,8580,-563,65,-12,-17,93.46,-171.55,-6.89
-923,8458,-716,57,-12,-17,94.30,-171.32,-10.50
-949,8409,-876,50,-9,-18,95.04,-171.08,-13.71
-1016,8442,-989,42,-7,-18,95.68,-170.84,-16.33
-1083,8520,-1091,34,-8,-17,96.21,-170.61,-18.45
-1079,8627,-1159,26,-8,-14,96.62,-170.42,-20.18
-1063,8805,-1193,18,-7,-9,96.90,-170.29,-21.41
-1054,9028,-1194,7,-6,-4,97.05,-170.24,-22.12
-1008,9278,-1193,-4,-5,1,97.02,-170.28,-22.21
-984,9542,-1160,-17,0,7,96.82,-170.42,-21.54
-1048,9760,-1129,-30,2,13,96.44,-170.61,-20.13
-1158,9912,-1109,-42,2,17,95.90,-170.87,-18.03
-1275,9964,-1130,-53,3,19,95.20,-171.16,-15.21
-1365,9929,-1189,-64,6,20,94.39,-171.44,-11.76
-1475,9849,-1179,-73,11,20,93.46,-171.72,-7.62
-1563,9745,-1121,-80,12,20,92.42,-172.00,-2.99
-1603,9674,-976,-87,13,23,91.28,-172.29,1.99
-1625,9646,-728,-95,13,28,90.02,-172.66,7.23
-1684,9625,-427,-102,8,33,88.64,-6.92,12.68
-1737,9606,-104,-110,2,39,87.13,-6.43,18.24
-1764,9558,224,-119,-3,46,85.47,-5.85,23.89
-1728,9470,458,-129,-11,53,83.69,-5.16,29.50
-1631,9322,379,-140,-21,56,81.79,-4.39,35.03
-1374,9046,-28,-149,-18,52,79.82,-3.62,40.15
-1038,8689,-425,-156,3,43,77.83,-2.98,44.27
-813,8339,-599,-158,22,35,75.82,-2.51,47.34
-772,8031,-510,-156,32,33,73.80,-2.18,49.61
-770,7744,-189,-150,28,37,71.80,-1.84,51.41
-733,7539,260,-145,19,43,69.85,-1.43,53.00
-670,7416,793,-143,10,49,67.90,-0.88,54.41
-591,7325,1309,-145,0,55,65.92,-0.22,55.76
-510,7187,1723,-150,-6,60,63.86,0.54,57.06
-480,6990,1981,-155,-12,64,61.73,1.37,58.24
-485,6696,2040,-157,-13,66,59.58,2.22,59.29
-429,6266,2027,-154,-7,64,57.46,3.02,60.09
-330,5789,2014,-146,5,58,55.41,3.68,60.58
-238,5347,2117,-135,19,50,53.48,4.13,60.78
-154,1925,8071,-3,-2,1,13.81,-1.00,59.50
-155,1916,8071,-3,-2,2,13.77,-0.99,59.47
-161,1887,8060,-3,-2,2,13.73,-0.95,59.44
-172,1862,8025,-2,-2,2,13.70,-0.92,59.41
-178,1844,8013,-1,-2,1,13.68,-0.90,59.40
-200,1832,8013,0,-3,1,13.68,-0.87,59.38
-211,1829,8025,2,-5,0,13.70,-0.83,59.38
